Folder: Tesis/Data/CV_CRGO300517_1/PWRCCD_CRGO300517_1/CHARGE_DISCHARGE (part 112)

File: CHARGE_#223.DTA
EXPLAIN
TAG	PWR800_CHARGE
TITLE	LABEL	PWR Cyclic Charge Discharge (Cell) - Charge Step	Test &Identifier
DATE	LABEL	22-6-2017	Date
TIME	LABEL	15:44:46	Time
NOTES	NOTES	3	&Notes...
	supercap test cell
	0.6mg
	6M KOH
PSTAT	PSTAT	IFC5000-01520	Potentiostat
CAPACITY	QUANT	1.00000E-003	Capacity (A-hr)
CELLTYPE	SELECTOR	1	&Cell Type
WORKINGCONNECTION	SELECTOR	0	&Working Lead
MAXCHARGETIME	VARIABLEANDUNITS	1.00000E+002	s	1.00000E+002	second(s)	Max &Charge Time
CHARGECURRENT	QUANT	6.00000E-003	&Charge Current (A)
VOLTAGEFINISH	TWOPARAM	F	1.00000E-003	3.60000E+003	&Voltage Finish	 I (A) < 	Max Time(s)
SAMPLETIME	QUANT	1.00000E-002	Sa&mple Period (s)
CHARGESTOPAT1	MULTIPARAM	4	1.00000E+000	Charge Stop At &1	Voltage > Limit	V
CHARGESTOPAT2	MULTIPARAM	0	0.00000E+000	Charge Stop At &2	None	N/A
AESBHCSELECTOR	TOGGLE	F	Save Both Half Cells
IRCOMP	TOGGLE	F	IR &Measure
EOC	QUANT	0	Open Circuit (V)
SEQUENCER	TOGGLE	TRUE	Run as Sequence
PSTATMODEL	IQUANT	53	Pstat Model
PSTATSECTION	LABEL	IFC5000-01520	Pstat Section
PSTATSERIALNO	LABEL	01520	Pstat Serial Number
CTRLMODE	IQUANT	0	Control Mode
ELECTROMETER	IQUANT	1	RE=0 or CS=1
IESTAB	IQUANT	0	I/E Stability
CASPEED	IQUANT	4	Control Amp Speed
CONVENTION	IQUANT	1	Current Convention
ICHRANGE	IQUANT	2	Ich Range
ICHRANGEMODE	TOGGLE	T	Ich Auto Range
ICHOFFSETENABLE	TOGGLE	F	Ich Offset Enable
ICHOFFSET	QUANT	0	Ich Offset (V)
ICHFILTER	IQUANT	1	Ich Filter
VCHRANGE	IQUANT	2	Vch Range
VCHRANGEMODE	TOGGLE	T	Vch Auto Range
VCHOFFSETENABLE	TOGGLE	F	Vch Offset Enable
VCHOFFSET	QUANT	0	Vch Offset (V)
VCHFILTER	IQUANT	1	Vch Filter
IERANGELOWERLIMIT	IQUANT	9	I/E Range Lower Limit
IERANGEMODE	TOGGLE	F	I/E AutoRange
IERANGE	IQUANT	10	I/E Range
ACHSELECT	IQUANT	1	Ach Select
ACHRANGE	IQUANT	2	Ach Range
ACHOFFSETENABLE	TOGGLE	F	Ach Offset Enable
ACHOFFSET	QUANT	0	Ach Offset (V)
ACHFILTER	IQUANT	1	Ach Filter
CABLEID	IQUANT	14	Cable ID
DCCALDATE	LABEL	20-10-2016	DC Calibration Date
ACCALDATE	LABEL	12/3/2015	AC Calibration Date
FRAMEWORKVERSION	QUANT	7.01	Framework Version
INSTRUMENTVERSION	LABEL	4.00	Instrument Version
CURVE	TABLE	65
	Pt	T	Vf	Im	Vu	Pwr	Sig	Ach	Temp	IERange	Over
	#	s	V	A	V	W	V	V	deg C	#	bits
	0	0.013333	6.09064E-001	5.99176E-003	0.00000E+000	3.64937E-003	3.59960E-001	-1.08137E+000	3.57710E+000	10	...........
	1	0.026667	6.17564E-001	5.99646E-003	0.00000E+000	3.70320E-003	3.59960E-001	-1.07232E+000	3.57710E+000	10	...........
	2	0.04	6.25353E-001	5.99252E-003	0.00000E+000	3.74744E-003	3.59960E-001	-1.07196E+000	3.57710E+000	10	...........
	3	0.053333	6.32718E-001	5.99284E-003	0.00000E+000	3.79178E-003	3.59960E-001	-1.08208E+000	3.57710E+000	10	...........
	4	0.066667	6.39856E-001	5.99119E-003	0.00000E+000	3.83350E-003	3.59960E-001	-1.07307E+000	3.57710E+000	10	...........
	5	0.08	6.46805E-001	5.99260E-003	0.00000E+000	3.87604E-003	3.59960E-001	-1.07320E+000	3.57707E+000	10	...........
	6	0.093333	6.53572E-001	5.98939E-003	0.00000E+000	3.91450E-003	3.59960E-001	-1.08313E+000	3.57690E+000	10	...........
	7	0.106667	6.60225E-001	5.99625E-003	0.00000E+000	3.95887E-003	3.59960E-001	-1.07429E+000	3.57690E+000	10	...........
	8	0.12	6.66892E-001	5.99385E-003	0.00000E+000	3.99725E-003	3.59960E-001	-1.07457E+000	3.57690E+000	10	...........
	9	0.133333	6.73432E-001	5.99550E-003	0.00000E+000	4.03756E-003	3.59960E-001	-1.08483E+000	3.57690E+000	10	...........
	10	0.146667	6.79874E-001	5.99269E-003	0.00000E+000	4.07427E-003	3.59960E-001	-1.07639E+000	3.57690E+000	10	...........
	11	0.16	6.86282E-001	5.99189E-003	0.00000E+000	4.11213E-003	3.59960E-001	-1.07653E+000	3.57690E+000	10	...........
	12	0.173333	6.92722E-001	5.99376E-003	0.00000E+000	4.15201E-003	3.59960E-001	-1.08671E+000	3.57690E+000	10	...........
	13	0.186667	6.99048E-001	5.99757E-003	0.00000E+000	4.19259E-003	3.59960E-001	-1.07816E+000	3.57690E+000	10	...........
	14	0.2	7.05374E-001	5.99554E-003	0.00000E+000	4.22910E-003	3.59960E-001	-1.07844E+000	3.57690E+000	10	...........
	15	0.213333	7.11667E-001	5.99936E-003	0.00000E+000	4.26955E-003	3.59960E-001	-1.08861E+000	3.57690E+000	10	...........
	16	0.226667	7.17967E-001	5.99362E-003	0.00000E+000	4.30323E-003	3.59960E-001	-1.07983E+000	3.57690E+000	10	...........
	17	0.24	7.24236E-001	5.99472E-003	0.00000E+000	4.34159E-003	3.59960E-001	-1.07988E+000	3.57690E+000	10	...........
	18	0.253333	7.30412E-001	5.99702E-003	0.00000E+000	4.38030E-003	3.59960E-001	-1.08966E+000	3.57690E+000	10	...........
	19	0.266667	7.36634E-001	5.99270E-003	0.00000E+000	4.41442E-003	3.59960E-001	-1.08100E+000	3.57690E+000	10	...........
	20	0.28	7.42851E-001	5.99377E-003	0.00000E+000	4.45248E-003	3.59960E-001	-1.08075E+000	3.57690E+000	10	...........
	21	0.293333	7.49061E-001	5.99359E-003	0.00000E+000	4.48957E-003	3.59960E-001	-1.09040E+000	3.57690E+000	10	...........
	22	0.306667	7.55270E-001	5.99438E-003	0.00000E+000	4.52737E-003	3.59960E-001	-1.08169E+000	3.57690E+000	10	...........
	23	0.32	7.61427E-001	5.99647E-003	0.00000E+000	4.56588E-003	3.59960E-001	-1.08142E+000	3.57690E+000	10	...........
	24	0.333333	7.67598E-001	5.99366E-003	0.00000E+000	4.60072E-003	3.59960E-001	-1.09116E+000	3.57690E+000	10	...........
	25	0.346667	7.73792E-001	5.99066E-003	0.00000E+000	4.63552E-003	3.59960E-001	-1.08201E+000	3.57690E+000	10	...........
	26	0.36	7.79956E-001	5.99378E-003	0.00000E+000	4.67489E-003	3.59960E-001	-1.08140E+000	3.57690E+000	10	...........
	27	0.373333	7.86111E-001	5.99617E-003	0.00000E+000	4.71366E-003	3.59960E-001	-1.09105E+000	3.57690E+000	10	...........
	28	0.386667	7.92250E-001	5.99354E-003	0.00000E+000	4.74838E-003	3.59960E-001	-1.08189E+000	3.57690E+000	10	...........
	29	0.4	7.98388E-001	5.99739E-003	0.00000E+000	4.78825E-003	3.59960E-001	-1.08114E+000	3.57690E+000	10	...........
	30	0.413333	8.04504E-001	5.99520E-003	0.00000E+000	4.82316E-003	3.59960E-001	-1.09084E+000	3.57690E+000	10	...........
	31	0.426667	8.10583E-001	5.99327E-003	0.00000E+000	4.85804E-003	3.59960E-001	-1.08174E+000	3.57690E+000	10	...........
	32	0.44	8.16704E-001	5.99308E-003	0.00000E+000	4.89457E-003	3.59960E-001	-1.08145E+000	3.57690E+000	10	...........
	33	0.453333	8.22790E-001	5.99749E-003	0.00000E+000	4.93468E-003	3.59960E-001	-1.09124E+000	3.57690E+000	10	...........
	34	0.466667	8.28856E-001	5.99512E-003	0.00000E+000	4.96909E-003	3.59960E-001	-1.08259E+000	3.57690E+000	10	...........
	35	0.48	8.34899E-001	5.99977E-003	0.00000E+000	5.00920E-003	3.59960E-001	-1.08218E+000	3.57690E+000	10	...........
	36	0.493333	8.40950E-001	5.99527E-003	0.00000E+000	5.04173E-003	3.59960E-001	-1.09179E+000	3.57690E+000	10	...........
	37	0.506667	8.47041E-001	5.99641E-003	0.00000E+000	5.07921E-003	3.59960E-001	-1.08296E+000	3.57690E+000	10	...........
	38	0.52	8.53093E-001	5.99197E-003	0.00000E+000	5.11171E-003	3.59960E-001	-1.08227E+000	3.57690E+000	10	...........
	39	0.533333	8.59092E-001	5.98800E-003	0.00000E+000	5.14424E-003	3.59960E-001	-1.09219E+000	3.57690E+000	10	...........
	40	0.546667	8.65113E-001	5.99463E-003	0.00000E+000	5.18603E-003	3.59960E-001	-1.08337E+000	3.57690E+000	10	...........
	41	0.56	8.71139E-001	5.99337E-003	0.00000E+000	5.22106E-003	3.59960E-001	-1.08287E+000	3.57690E+000	10	...........
	42	0.573333	8.77129E-001	5.99409E-003	0.00000E+000	5.25759E-003	3.59960E-001	-1.09293E+000	3.57690E+000	10	...........
	43	0.586667	8.83117E-001	5.99038E-003	0.00000E+000	5.29021E-003	3.59960E-001	-1.08446E+000	3.57690E+000	10	...........
	44	0.6	8.89092E-001	5.99232E-003	0.00000E+000	5.32772E-003	3.59960E-001	-1.08412E+000	3.57690E+000	10	...........
	45	0.613333	8.95003E-001	5.99374E-003	0.00000E+000	5.36441E-003	3.59960E-001	-1.09407E+000	3.57690E+000	10	...........
	46	0.626667	9.00899E-001	5.99285E-003	0.00000E+000	5.39895E-003	3.59960E-001	-1.08538E+000	3.57690E+000	10	...........
	47	0.64	9.06803E-001	5.99477E-003	0.00000E+000	5.43608E-003	3.59960E-001	-1.08449E+000	3.57690E+000	10	...........
	48	0.653333	9.12697E-001	5.99455E-003	0.00000E+000	5.47121E-003	3.59960E-001	-1.09475E+000	3.57690E+000	10	...........
	49	0.666667	9.18550E-001	5.99406E-003	0.00000E+000	5.50585E-003	3.59960E-001	-1.08654E+000	3.57690E+000	10	...........
	50	0.68	9.24415E-001	5.99357E-003	0.00000E+000	5.54055E-003	3.59960E-001	-1.08619E+000	3.57690E+000	10	...........
	51	0.693333	9.30204E-001	5.99491E-003	0.00000E+000	5.57649E-003	3.59960E-001	-1.09617E+000	3.57690E+000	10	...........
	52	0.706667	9.35954E-001	5.99045E-003	0.00000E+000	5.60679E-003	3.59960E-001	-1.08747E+000	3.57690E+000	10	...........
	53	0.72	9.41709E-001	5.99050E-003	0.00000E+000	5.64130E-003	3.59960E-001	-1.08706E+000	3.57690E+000	10	...........
	54	0.733333	9.47448E-001	5.99591E-003	0.00000E+000	5.68081E-003	3.59960E-001	-1.09742E+000	3.57690E+000	10	...........
	55	0.746667	9.53110E-001	5.99577E-003	0.00000E+000	5.71463E-003	3.59960E-001	-1.08896E+000	3.57690E+000	10	...........
	56	0.76	9.58769E-001	5.99644E-003	0.00000E+000	5.74920E-003	3.59960E-001	-1.08844E+000	3.57690E+000	10	...........
	57	0.773333	9.64370E-001	5.99634E-003	0.00000E+000	5.78268E-003	3.59960E-001	-1.09837E+000	3.57690E+000	10	...........
	58	0.786667	9.69934E-001	5.99336E-003	0.00000E+000	5.81317E-003	3.59960E-001	-1.08991E+000	3.57690E+000	10	...........
	59	0.8	9.75546E-001	5.99321E-003	0.00000E+000	5.84665E-003	3.59960E-001	-1.08917E+000	3.57690E+000	10	...........
	60	0.813333	9.81072E-001	5.99704E-003	0.00000E+000	5.88352E-003	3.59960E-001	-1.09883E+000	3.57690E+000	10	...........
	61	0.826667	9.86518E-001	5.98931E-003	0.00000E+000	5.90856E-003	3.59960E-001	-1.08998E+000	3.57690E+000	10	...........
	62	0.84	9.91948E-001	5.99075E-003	0.00000E+000	5.94251E-003	3.59960E-001	-1.08893E+000	3.57690E+000	10	...........
	63	0.853333	9.97364E-001	5.99397E-003	0.00000E+000	5.97817E-003	3.59960E-001	-1.09866E+000	3.57690E+000	10	...........
	64	0.855	1.00041E+000	5.99963E-003	0.00000E+000	6.00212E-003	3.59960E-001	-1.08158E+000	3.57690E+000	10	...........
STARTTIMEOFFSET	QUANT	412.31	Start Time Offset (s)

File: CHARGE_#224.DTA
EXPLAIN
TAG	PWR800_CHARGE
TITLE	LABEL	PWR Cyclic Charge Discharge (Cell) - Charge Step	Test &Identifier
DATE	LABEL	22-6-2017	Date
TIME	LABEL	15:44:48	Time
NOTES	NOTES	3	&Notes...
	supercap test cell
	0.6mg
	6M KOH
PSTAT	PSTAT	IFC5000-01520	Potentiostat
CAPACITY	QUANT	1.00000E-003	Capacity (A-hr)
CELLTYPE	SELECTOR	1	&Cell Type
WORKINGCONNECTION	SELECTOR	0	&Working Lead
MAXCHARGETIME	VARIABLEANDUNITS	1.00000E+002	s	1.00000E+002	second(s)	Max &Charge Time
CHARGECURRENT	QUANT	6.00000E-003	&Charge Current (A)
VOLTAGEFINISH	TWOPARAM	F	1.00000E-003	3.60000E+003	&Voltage Finish	 I (A) < 	Max Time(s)
SAMPLETIME	QUANT	1.00000E-002	Sa&mple Period (s)
CHARGESTOPAT1	MULTIPARAM	4	1.00000E+000	Charge Stop At &1	Voltage > Limit	V
CHARGESTOPAT2	MULTIPARAM	0	0.00000E+000	Charge Stop At &2	None	N/A
AESBHCSELECTOR	TOGGLE	F	Save Both Half Cells
IRCOMP	TOGGLE	F	IR &Measure
EOC	QUANT	0	Open Circuit (V)
SEQUENCER	TOGGLE	TRUE	Run as Sequence
PSTATMODEL	IQUANT	53	Pstat Model
PSTATSECTION	LABEL	IFC5000-01520	Pstat Section
PSTATSERIALNO	LABEL	01520	Pstat Serial Number
CTRLMODE	IQUANT	0	Control Mode
ELECTROMETER	IQUANT	1	RE=0 or CS=1
IESTAB	IQUANT	0	I/E Stability
CASPEED	IQUANT	4	Control Amp Speed
CONVENTION	IQUANT	1	Current Convention
ICHRANGE	IQUANT	2	Ich Range
ICHRANGEMODE	TOGGLE	T	Ich Auto Range
ICHOFFSETENABLE	TOGGLE	F	Ich Offset Enable
ICHOFFSET	QUANT	0	Ich Offset (V)
ICHFILTER	IQUANT	1	Ich Filter
VCHRANGE	IQUANT	2	Vch Range
VCHRANGEMODE	TOGGLE	T	Vch Auto Range
VCHOFFSETENABLE	TOGGLE	F	Vch Offset Enable
VCHOFFSET	QUANT	0	Vch Offset (V)
VCHFILTER	IQUANT	1	Vch Filter
IERANGELOWERLIMIT	IQUANT	9	I/E Range Lower Limit
IERANGEMODE	TOGGLE	F	I/E AutoRange
IERANGE	IQUANT	10	I/E Range
ACHSELECT	IQUANT	1	Ach Select
ACHRANGE	IQUANT	2	Ach Range
ACHOFFSETENABLE	TOGGLE	F	Ach Offset Enable
ACHOFFSET	QUANT	0	Ach Offset (V)
ACHFILTER	IQUANT	1	Ach Filter
CABLEID	IQUANT	14	Cable ID
DCCALDATE	LABEL	20-10-2016	DC Calibration Date
ACCALDATE	LABEL	12/3/2015	AC Calibration Date
FRAMEWORKVERSION	QUANT	7.01	Framework Version
INSTRUMENTVERSION	LABEL	4.00	Instrument Version
CURVE	TABLE	65
	Pt	T	Vf	Im	Vu	Pwr	Sig	Ach	Temp	IERange	Over
	#	s	V	A	V	W	V	V	deg C	#	bits
	0	0.013333	6.08395E-001	5.99316E-003	0.00000E+000	3.64621E-003	3.59960E-001	-1.09080E+000	3.57820E+000	10	...........
	1	0.026667	6.16922E-001	5.99131E-003	0.00000E+000	3.69617E-003	3.59960E-001	-1.08349E+000	3.57820E+000	10	...........
	2	0.04	6.24753E-001	5.99506E-003	0.00000E+000	3.74543E-003	3.59960E-001	-1.08846E+000	3.57820E+000	10	...........
	3	0.053333	6.32147E-001	5.98974E-003	0.00000E+000	3.78640E-003	3.59960E-001	-1.09201E+000	3.57820E+000	10	...........
	4	0.066667	6.39283E-001	5.99583E-003	0.00000E+000	3.83303E-003	3.59960E-001	-1.08461E+000	3.57820E+000	10	...........
	5	0.08	6.46192E-001	5.99284E-003	0.00000E+000	3.87253E-003	3.59960E-001	-1.08941E+000	3.57820E+000	10	...........
	6	0.093333	6.52989E-001	5.99302E-003	0.00000E+000	3.91338E-003	3.59960E-001	-1.09320E+000	3.57820E+000	10	...........
	7	0.106667	6.59672E-001	5.99363E-003	0.00000E+000	3.95383E-003	3.59960E-001	-1.08604E+000	3.57820E+000	10	...........
	8	0.12	6.66293E-001	5.99438E-003	0.00000E+000	3.99401E-003	3.59960E-001	-1.09072E+000	3.57820E+000	10	...........
	9	0.133333	6.72821E-001	5.99200E-003	0.00000E+000	4.03154E-003	3.59960E-001	-1.09380E+000	3.57820E+000	10	...........
	10	0.146667	6.79307E-001	5.99336E-003	0.00000E+000	4.07133E-003	3.59960E-001	-1.08612E+000	3.57820E+000	10	...........
	11	0.16	6.85702E-001	5.99526E-003	0.00000E+000	4.11096E-003	3.59960E-001	-1.09075E+000	3.57820E+000	10	...........
	12	0.173333	6.92141E-001	5.99343E-003	0.00000E+000	4.14830E-003	3.59960E-001	-1.09444E+000	3.57820E+000	10	...........
	13	0.186667	6.98535E-001	6.00212E-003	0.00000E+000	4.19269E-003	3.59960E-001	-1.08665E+000	3.57820E+000	10	...........
	14	0.2	7.04807E-001	5.99075E-003	0.00000E+000	4.22232E-003	3.59960E-001	-1.09060E+000	3.57820E+000	10	...........
	15	0.213333	7.11132E-001	5.99422E-003	0.00000E+000	4.26268E-003	3.59960E-001	-1.09417E+000	3.57820E+000	10	...........
	16	0.226667	7.17468E-001	5.99124E-003	0.00000E+000	4.29852E-003	3.59960E-001	-1.08641E+000	3.57820E+000	10	...........
	17	0.24	7.23747E-001	6.00156E-003	0.00000E+000	4.34361E-003	3.59960E-001	-1.09063E+000	3.57820E+000	10	...........
	18	0.253333	7.29942E-001	5.99246E-003	0.00000E+000	4.37414E-003	3.59960E-001	-1.09409E+000	3.57820E+000	10	...........
	19	0.266667	7.36109E-001	5.99342E-003	0.00000E+000	4.41181E-003	3.59960E-001	-1.08593E+000	3.57820E+000	10	...........
	20	0.28	7.42326E-001	5.99435E-003	0.00000E+000	4.44977E-003	3.59960E-001	-1.09001E+000	3.57820E+000	10	...........
	21	0.293333	7.48527E-001	5.99648E-003	0.00000E+000	4.48853E-003	3.59960E-001	-1.09404E+000	3.57820E+000	10	...........
	22	0.306667	7.54686E-001	5.99461E-003	0.00000E+000	4.52404E-003	3.59960E-001	-1.08602E+000	3.57820E+000	10	...........
	23	0.32	7.60887E-001	5.99520E-003	0.00000E+000	4.56167E-003	3.59960E-001	-1.08997E+000	3.57820E+000	10	...........
	24	0.333333	7.67042E-001	5.99430E-003	0.00000E+000	4.59788E-003	3.59960E-001	-1.09401E+000	3.57820E+000	10	...........
	25	0.346667	7.73160E-001	5.99070E-003	0.00000E+000	4.63177E-003	3.59960E-001	-1.08587E+000	3.57820E+000	10	...........
	26	0.36	7.79365E-001	5.99450E-003	0.00000E+000	4.67190E-003	3.59960E-001	-1.08984E+000	3.57820E+000	10	...........
	27	0.373333	7.85518E-001	6.00040E-003	0.00000E+000	4.71343E-003	3.59960E-001	-1.09424E+000	3.57820E+000	10	...........
	28	0.386667	7.91644E-001	5.99300E-003	0.00000E+000	4.74432E-003	3.59960E-001	-1.08591E+000	3.57820E+000	10	...........
	29	0.4	7.97820E-001	5.99261E-003	0.00000E+000	4.78103E-003	3.59960E-001	-1.08960E+000	3.57820E+000	10	...........
	30	0.413333	8.03926E-001	5.99318E-003	0.00000E+000	4.81807E-003	3.59960E-001	-1.09365E+000	3.57820E+000	10	...........
	31	0.426667	8.10026E-001	5.99332E-003	0.00000E+000	4.85475E-003	3.59960E-001	-1.08543E+000	3.57820E+000	10	...........
	32	0.44	8.16147E-001	5.99572E-003	0.00000E+000	4.89339E-003	3.59960E-001	-1.08938E+000	3.57820E+000	10	...........
	33	0.453333	8.22258E-001	5.99227E-003	0.00000E+000	4.92719E-003	3.59960E-001	-1.09312E+000	3.57820E+000	10	...........
	34	0.466667	8.28294E-001	5.99255E-003	0.00000E+000	4.96360E-003	3.59960E-001	-1.08467E+000	3.57820E+000	10	...........
	35	0.48	8.34361E-001	5.99567E-003	0.00000E+000	5.00256E-003	3.59960E-001	-1.08806E+000	3.57820E+000	10	...........
	36	0.493333	8.40441E-001	5.99539E-003	0.00000E+000	5.03877E-003	3.59960E-001	-1.09255E+000	3.57820E+000	10	...........
	37	0.506667	8.46493E-001	5.99365E-003	0.00000E+000	5.07358E-003	3.59960E-001	-1.08402E+000	3.57820E+000	10	...........
	38	0.52	8.52527E-001	5.99429E-003	0.00000E+000	5.11030E-003	3.59960E-001	-1.08764E+000	3.57820E+000	10	...........
	39	0.533333	8.58577E-001	5.99621E-003	0.00000E+000	5.14821E-003	3.59960E-001	-1.09204E+000	3.57820E+000	10	...........
	40	0.546667	8.64611E-001	5.99049E-003	0.00000E+000	5.17944E-003	3.59960E-001	-1.08357E+000	3.57820E+000	10	...........
	41	0.56	8.70654E-001	5.99283E-003	0.00000E+000	5.21768E-003	3.59960E-001	-1.08715E+000	3.57820E+000	10	...........
	42	0.573333	8.76635E-001	5.99767E-003	0.00000E+000	5.25777E-003	3.59960E-001	-1.09211E+000	3.57820E+000	10	...........
	43	0.586667	8.82597E-001	5.99012E-003	0.00000E+000	5.28686E-003	3.59960E-001	-1.08348E+000	3.57782E+000	10	...........
	44	0.6	8.88558E-001	5.99965E-003	0.00000E+000	5.33104E-003	3.59960E-001	-1.08689E+000	3.57720E+000	10	...........
	45	0.613333	8.94470E-001	5.99083E-003	0.00000E+000	5.35862E-003	3.59960E-001	-1.09164E+000	3.57720E+000	10	...........
	46	0.626667	9.00403E-001	5.99061E-003	0.00000E+000	5.39397E-003	3.59960E-001	-1.08308E+000	3.57720E+000	10	...........
	47	0.64	9.06328E-001	5.99580E-003	0.00000E+000	5.43417E-003	3.59960E-001	-1.08659E+000	3.57720E+000	10	...........
	48	0.653333	9.12212E-001	5.99277E-003	0.00000E+000	5.46667E-003	3.59960E-001	-1.09183E+000	3.57720E+000	10	...........
	49	0.666667	9.18059E-001	5.99601E-003	0.00000E+000	5.50469E-003	3.59960E-001	-1.08310E+000	3.57720E+000	10	...........
	50	0.68	9.23945E-001	5.99236E-003	0.00000E+000	5.53661E-003	3.59960E-001	-1.08640E+000	3.57720E+000	10	...........
	51	0.693333	9.29756E-001	5.99384E-003	0.00000E+000	5.57281E-003	3.59960E-001	-1.09185E+000	3.57720E+000	10	...........
	52	0.706667	9.35493E-001	5.99055E-003	0.00000E+000	5.60411E-003	3.59960E-001	-1.08313E+000	3.57720E+000	10	...........
	53	0.72	9.41261E-001	5.99231E-003	0.00000E+000	5.64033E-003	3.59960E-001	-1.08656E+000	3.57720E+000	10	...........
	54	0.733333	9.47008E-001	5.99701E-003	0.00000E+000	5.67922E-003	3.59960E-001	-1.09165E+000	3.57720E+000	10	...........
	55	0.746667	9.52699E-001	5.99059E-003	0.00000E+000	5.70723E-003	3.59960E-001	-1.08290E+000	3.57720E+000	10	...........
	56	0.76	9.58367E-001	5.99452E-003	0.00000E+000	5.74495E-003	3.59960E-001	-1.08618E+000	3.57720E+000	10	...........
	57	0.773333	9.63968E-001	5.99313E-003	0.00000E+000	5.77719E-003	3.59960E-001	-1.09171E+000	3.57720E+000	10	...........
	58	0.786667	9.69518E-001	5.99123E-003	0.00000E+000	5.80860E-003	3.59960E-001	-1.08286E+000	3.57720E+000	10	...........
	59	0.8	9.75139E-001	5.99300E-003	0.00000E+000	5.84400E-003	3.59960E-001	-1.08592E+000	3.57720E+000	10	...........
	60	0.813333	9.80654E-001	5.99588E-003	0.00000E+000	5.87988E-003	3.59960E-001	-1.09154E+000	3.57720E+000	10	...........
	61	0.826667	9.86118E-001	5.99253E-003	0.00000E+000	5.90934E-003	3.59960E-001	-1.08300E+000	3.57720E+000	10	...........
	62	0.84	9.91518E-001	5.99302E-003	0.00000E+000	5.94219E-003	3.59960E-001	-1.08623E+000	3.57720E+000	10	...........
	63	0.853333	9.96928E-001	5.99108E-003	0.00000E+000	5.97267E-003	3.59960E-001	-1.09164E+000	3.57720E+000	10	...........
	64	0.856667	1.00031E+000	5.99087E-003	0.00000E+000	5.99272E-003	3.59960E-001	-1.08274E+000	3.57720E+000	10	...........
STARTTIMEOFFSET	QUANT	414.0117	Start Time Offset (s)