Folder: Tesis/Data/CV_CRGO300517_1/PWRCCD_CRGO300517_1/CHARGE_DISCHARGE (part 9)

File: CHARGE_#17.DTA
EXPLAIN
TAG	PWR800_CHARGE
TITLE	LABEL	PWR Cyclic Charge Discharge (Cell) - Charge Step	Test &Identifier
DATE	LABEL	22-6-2017	Date
TIME	LABEL	15:35:43	Time
NOTES	NOTES	3	&Notes...
	supercap test cell
	0.6mg
	6M KOH
PSTAT	PSTAT	IFC5000-01520	Potentiostat
CAPACITY	QUANT	1.00000E-003	Capacity (A-hr)
CELLTYPE	SELECTOR	1	&Cell Type
WORKINGCONNECTION	SELECTOR	0	&Working Lead
MAXCHARGETIME	VARIABLEANDUNITS	1.00000E+002	s	1.00000E+002	second(s)	Max &Charge Time
CHARGECURRENT	QUANT	6.00000E-003	&Charge Current (A)
VOLTAGEFINISH	TWOPARAM	F	1.00000E-003	3.60000E+003	&Voltage Finish	 I (A) < 	Max Time(s)
SAMPLETIME	QUANT	1.00000E-002	Sa&mple Period (s)
CHARGESTOPAT1	MULTIPARAM	4	1.00000E+000	Charge Stop At &1	Voltage > Limit	V
CHARGESTOPAT2	MULTIPARAM	0	0.00000E+000	Charge Stop At &2	None	N/A
AESBHCSELECTOR	TOGGLE	F	Save Both Half Cells
IRCOMP	TOGGLE	F	IR &Measure
EOC	QUANT	0	Open Circuit (V)
SEQUENCER	TOGGLE	TRUE	Run as Sequence
PSTATMODEL	IQUANT	53	Pstat Model
PSTATSECTION	LABEL	IFC5000-01520	Pstat Section
PSTATSERIALNO	LABEL	01520	Pstat Serial Number
CTRLMODE	IQUANT	0	Control Mode
ELECTROMETER	IQUANT	1	RE=0 or CS=1
IESTAB	IQUANT	0	I/E Stability
CASPEED	IQUANT	4	Control Amp Speed
CONVENTION	IQUANT	1	Current Convention
ICHRANGE	IQUANT	2	Ich Range
ICHRANGEMODE	TOGGLE	T	Ich Auto Range
ICHOFFSETENABLE	TOGGLE	F	Ich Offset Enable
ICHOFFSET	QUANT	0	Ich Offset (V)
ICHFILTER	IQUANT	1	Ich Filter
VCHRANGE	IQUANT	2	Vch Range
VCHRANGEMODE	TOGGLE	T	Vch Auto Range
VCHOFFSETENABLE	TOGGLE	F	Vch Offset Enable
VCHOFFSET	QUANT	0	Vch Offset (V)
VCHFILTER	IQUANT	1	Vch Filter
IERANGELOWERLIMIT	IQUANT	9	I/E Range Lower Limit
IERANGEMODE	TOGGLE	F	I/E AutoRange
IERANGE	IQUANT	10	I/E Range
ACHSELECT	IQUANT	1	Ach Select
ACHRANGE	IQUANT	2	Ach Range
ACHOFFSETENABLE	TOGGLE	F	Ach Offset Enable
ACHOFFSET	QUANT	0	Ach Offset (V)
ACHFILTER	IQUANT	1	Ach Filter
CABLEID	IQUANT	14	Cable ID
DCCALDATE	LABEL	20-10-2016	DC Calibration Date
ACCALDATE	LABEL	12/3/2015	AC Calibration Date
FRAMEWORKVERSION	QUANT	7.01	Framework Version
INSTRUMENTVERSION	LABEL	4.00	Instrument Version
CURVE	TABLE	79
	Pt	T	Vf	Im	Vu	Pwr	Sig	Ach	Temp	IERange	Over
	#	s	V	A	V	W	V	V	deg C	#	bits
	0	0.013333	5.59165E-001	5.99459E-003	0.00000E+000	3.35197E-003	3.59960E-001	-1.01481E+000	3.57780E+000	10	...........
	1	0.026667	5.67228E-001	5.99423E-003	0.00000E+000	3.40009E-003	3.59960E-001	-1.02367E+000	3.57780E+000	10	...........
	2	0.04	5.74507E-001	5.99375E-003	0.00000E+000	3.44345E-003	3.59960E-001	-1.01219E+000	3.57780E+000	10	...........
	3	0.053333	5.81383E-001	5.99428E-003	0.00000E+000	3.48497E-003	3.59960E-001	-1.01490E+000	3.57780E+000	10	...........
	4	0.066667	5.88019E-001	5.99743E-003	0.00000E+000	3.52660E-003	3.59960E-001	-1.02352E+000	3.57780E+000	10	...........
	5	0.08	5.94488E-001	5.99334E-003	0.00000E+000	3.56297E-003	3.59960E-001	-1.01204E+000	3.57780E+000	10	...........
	6	0.093333	6.00765E-001	5.99273E-003	0.00000E+000	3.60022E-003	3.59960E-001	-1.01466E+000	3.57780E+000	10	...........
	7	0.106667	6.06895E-001	5.99308E-003	0.00000E+000	3.63717E-003	3.59960E-001	-1.02323E+000	3.57780E+000	10	...........
	8	0.12	6.12985E-001	5.99381E-003	0.00000E+000	3.67412E-003	3.59960E-001	-1.01203E+000	3.57780E+000	10	...........
	9	0.133333	6.19026E-001	5.99608E-003	0.00000E+000	3.71172E-003	3.59960E-001	-1.01476E+000	3.57780E+000	10	...........
	10	0.146667	6.24924E-001	5.99532E-003	0.00000E+000	3.74662E-003	3.59960E-001	-1.02342E+000	3.57780E+000	10	...........
	11	0.16	6.30815E-001	5.99310E-003	0.00000E+000	3.78054E-003	3.59960E-001	-1.01197E+000	3.57780E+000	10	...........
	12	0.173333	6.36651E-001	5.99469E-003	0.00000E+000	3.81652E-003	3.59960E-001	-1.01470E+000	3.57780E+000	10	...........
	13	0.186667	6.42476E-001	5.99080E-003	0.00000E+000	3.84894E-003	3.59960E-001	-1.02371E+000	3.57780E+000	10	...........
	14	0.2	6.48208E-001	5.99621E-003	0.00000E+000	3.88679E-003	3.59960E-001	-1.01220E+000	3.57780E+000	10	...........
	15	0.213333	6.53956E-001	5.99644E-003	0.00000E+000	3.92141E-003	3.59960E-001	-1.01461E+000	3.57780E+000	10	...........
	16	0.226667	6.59656E-001	5.99676E-003	0.00000E+000	3.95580E-003	3.59960E-001	-1.02322E+000	3.57780E+000	10	...........
	17	0.24	6.65367E-001	5.99233E-003	0.00000E+000	3.98710E-003	3.59960E-001	-1.01158E+000	3.57780E+000	10	...........
	18	0.253333	6.71034E-001	5.99271E-003	0.00000E+000	4.02131E-003	3.59960E-001	-1.01427E+000	3.57780E+000	10	...........
	19	0.266667	6.76667E-001	5.98912E-003	0.00000E+000	4.05264E-003	3.59960E-001	-1.02303E+000	3.57780E+000	10	...........
	20	0.28	6.82288E-001	5.99332E-003	0.00000E+000	4.08917E-003	3.59960E-001	-1.01144E+000	3.57780E+000	10	...........
	21	0.293333	6.87896E-001	5.99463E-003	0.00000E+000	4.12368E-003	3.59960E-001	-1.01395E+000	3.57780E+000	10	...........
	22	0.306667	6.93492E-001	5.99345E-003	0.00000E+000	4.15641E-003	3.59960E-001	-1.02292E+000	3.57780E+000	10	...........
	23	0.32	6.99065E-001	5.99314E-003	0.00000E+000	4.18960E-003	3.59960E-001	-1.01150E+000	3.57780E+000	10	...........
	24	0.333333	7.04664E-001	5.99658E-003	0.00000E+000	4.22557E-003	3.59960E-001	-1.01413E+000	3.57780E+000	10	...........
	25	0.346667	7.10242E-001	5.99269E-003	0.00000E+000	4.25626E-003	3.59960E-001	-1.02306E+000	3.57780E+000	10	...........
	26	0.36	7.15856E-001	5.99034E-003	0.00000E+000	4.28822E-003	3.59960E-001	-1.01136E+000	3.57780E+000	10	...........
	27	0.373333	7.21442E-001	5.99214E-003	0.00000E+000	4.32299E-003	3.59960E-001	-1.01395E+000	3.57780E+000	10	...........
	28	0.386667	7.27004E-001	5.99479E-003	0.00000E+000	4.35824E-003	3.59960E-001	-1.02310E+000	3.57780E+000	10	...........
	29	0.4	7.32513E-001	5.99350E-003	0.00000E+000	4.39031E-003	3.59960E-001	-1.01161E+000	3.57780E+000	10	...........
	30	0.413333	7.38073E-001	5.99516E-003	0.00000E+000	4.42487E-003	3.59960E-001	-1.01408E+000	3.57780E+000	10	...........
	31	0.426667	7.43664E-001	5.99660E-003	0.00000E+000	4.45945E-003	3.59960E-001	-1.02281E+000	3.57780E+000	10	...........
	32	0.44	7.49226E-001	5.99330E-003	0.00000E+000	4.49034E-003	3.59960E-001	-1.01134E+000	3.57780E+000	10	...........
	33	0.453333	7.54758E-001	5.99221E-003	0.00000E+000	4.52267E-003	3.59960E-001	-1.01412E+000	3.57780E+000	10	...........
	34	0.466667	7.60322E-001	5.99459E-003	0.00000E+000	4.55782E-003	3.59960E-001	-1.02325E+000	3.57780E+000	10	...........
	35	0.48	7.65865E-001	5.99629E-003	0.00000E+000	4.59235E-003	3.59960E-001	-1.01168E+000	3.57780E+000	10	...........
	36	0.493333	7.71422E-001	5.99179E-003	0.00000E+000	4.62220E-003	3.59960E-001	-1.01399E+000	3.57780E+000	10	...........
	37	0.506667	7.76958E-001	5.99175E-003	0.00000E+000	4.65533E-003	3.59960E-001	-1.02296E+000	3.57780E+000	10	...........
	38	0.52	7.82549E-001	5.99828E-003	0.00000E+000	4.69394E-003	3.59960E-001	-1.01167E+000	3.57780E+000	10	...........
	39	0.533333	7.88091E-001	5.98958E-003	0.00000E+000	4.72033E-003	3.59960E-001	-1.01432E+000	3.57780E+000	10	...........
	40	0.546667	7.93688E-001	5.99368E-003	0.00000E+000	4.75711E-003	3.59960E-001	-1.02308E+000	3.57780E+000	10	...........
	41	0.56	7.99259E-001	5.99222E-003	0.00000E+000	4.78933E-003	3.59960E-001	-1.01121E+000	3.57780E+000	10	...........
	42	0.573333	8.04767E-001	5.99521E-003	0.00000E+000	4.82475E-003	3.59960E-001	-1.01367E+000	3.57780E+000	10	...........
[...]
	49	0.666667	8.43624E-001	5.99169E-003	0.00000E+000	5.05474E-003	3.59960E-001	-1.02262E+000	3.57780E+000	10	...........
	50	0.68	8.49174E-001	5.99521E-003	0.00000E+000	5.09098E-003	3.59960E-001	-1.01114E+000	3.57780E+000	10	...........
	51	0.693333	8.54723E-001	5.99370E-003	0.00000E+000	5.12295E-003	3.59960E-001	-1.01346E+000	3.57780E+000	10	...........
	52	0.706667	8.60286E-001	5.99147E-003	0.00000E+000	5.15437E-003	3.59960E-001	-1.02270E+000	3.57780E+000	10	...........
	53	0.72	8.65806E-001	5.99467E-003	0.00000E+000	5.19022E-003	3.59960E-001	-1.01132E+000	3.57780E+000	10	...........
	54	0.733333	8.71388E-001	5.99600E-003	0.00000E+000	5.22484E-003	3.59960E-001	-1.01365E+000	3.57780E+000	10	...........
	55	0.746667	8.76903E-001	5.99288E-003	0.00000E+000	5.25518E-003	3.59960E-001	-1.02270E+000	3.57780E+000	10	...........
	56	0.76	8.82443E-001	5.99426E-003	0.00000E+000	5.28959E-003	3.59960E-001	-1.01128E+000	3.57780E+000	10	...........
	57	0.773333	8.88004E-001	5.99261E-003	0.00000E+000	5.32146E-003	3.59960E-001	-1.01374E+000	3.57780E+000	10	...........
	58	0.786667	8.93485E-001	5.99458E-003	0.00000E+000	5.35607E-003	3.59960E-001	-1.02312E+000	3.57780E+000	10	...........
	59	0.8	8.99033E-001	5.99656E-003	0.00000E+000	5.39110E-003	3.59960E-001	-1.01156E+000	3.57870E+000	10	...........
	60	0.813333	9.04522E-001	5.99481E-003	0.00000E+000	5.42244E-003	3.59960E-001	-1.01364E+000	3.57870E+000	10	...........
	61	0.826667	9.10046E-001	5.99571E-003	0.00000E+000	5.45637E-003	3.59960E-001	-1.02279E+000	3.57870E+000	10	...........
	62	0.84	9.15523E-001	5.99222E-003	0.00000E+000	5.48601E-003	3.59960E-001	-1.01134E+000	3.57870E+000	10	...........
	63	0.853333	9.21081E-001	5.99608E-003	0.00000E+000	5.52287E-003	3.59960E-001	-1.01384E+000	3.57870E+000	10	...........
	64	0.866667	9.26544E-001	5.99433E-003	0.00000E+000	5.55402E-003	3.59960E-001	-1.02305E+000	3.57870E+000	10	...........
	65	0.88	9.31998E-001	5.99610E-003	0.00000E+000	5.58835E-003	3.59960E-001	-1.01076E+000	3.57870E+000	10	...........
	66	0.893333	9.37437E-001	5.99580E-003	0.00000E+000	5.62069E-003	3.59960E-001	-1.01327E+000	3.57870E+000	10	...........
	67	0.906667	9.42843E-001	5.99346E-003	0.00000E+000	5.65089E-003	3.59960E-001	-1.02249E+000	3.57870E+000	10	...........
	68	0.92	9.48301E-001	5.99114E-003	0.00000E+000	5.68141E-003	3.59960E-001	-1.01103E+000	3.57870E+000	10	...........
	69	0.933333	9.53696E-001	5.99594E-003	0.00000E+000	5.71830E-003	3.59960E-001	-1.01321E+000	3.57870E+000	10	...........
	70	0.946667	9.59074E-001	5.99448E-003	0.00000E+000	5.74915E-003	3.59960E-001	-1.02256E+000	3.57870E+000	10	...........
	71	0.96	9.64425E-001	5.99688E-003	0.00000E+000	5.78354E-003	3.59960E-001	-1.01100E+000	3.57870E+000	10	...........
	72	0.97333	9.69747E-001	5.99493E-003	0.00000E+000	5.81356E-003	3.59960E-001	-1.01314E+000	3.57870E+000	10	...........
	73	0.98667	9.75081E-001	5.99269E-003	0.00000E+000	5.84335E-003	3.59960E-001	-1.02271E+000	3.57870E+000	10	...........
	74	1	9.80328E-001	5.99598E-003	0.00000E+000	5.87803E-003	3.59960E-001	-1.01115E+000	3.57870E+000	10	...........
	75	1.01333	9.85610E-001	5.99399E-003	0.00000E+000	5.90774E-003	3.59960E-001	-1.01317E+000	3.57870E+000	10	...........
	76	1.02667	9.90862E-001	5.99740E-003	0.00000E+000	5.94260E-003	3.59960E-001	-1.02238E+000	3.57870E+000	10	...........
	77	1.04	9.96085E-001	5.99473E-003	0.00000E+000	5.97126E-003	3.59960E-001	-1.01096E+000	3.57870E+000	10	...........
	78	1.045	9.99644E-001	5.99290E-003	0.00000E+000	5.99077E-003	3.59960E-001	-1.02557E+000	3.57870E+000	10	...........
STARTTIMEOFFSET	QUANT	34.30167	Start Time Offset (s)

File: CHARGE_#18.DTA
EXPLAIN
TAG	PWR800_CHARGE
TITLE	LABEL	PWR Cyclic Charge Discharge (Cell) - Charge Step	Test &Identifier
DATE	LABEL	22-6-2017	Date
TIME	LABEL	15:35:46	Time
NOTES	NOTES	3	&Notes...
	supercap test cell
	0.6mg
	6M KOH
PSTAT	PSTAT	IFC5000-01520	Potentiostat
CAPACITY	QUANT	1.00000E-003	Capacity (A-hr)
CELLTYPE	SELECTOR	1	&Cell Type
WORKINGCONNECTION	SELECTOR	0	&Working Lead
MAXCHARGETIME	VARIABLEANDUNITS	1.00000E+002	s	1.00000E+002	second(s)	Max &Charge Time
CHARGECURRENT	QUANT	6.00000E-003	&Charge Current (A)
VOLTAGEFINISH	TWOPARAM	F	1.00000E-003	3.60000E+003	&Voltage Finish	 I (A) < 	Max Time(s)
SAMPLETIME	QUANT	1.00000E-002	Sa&mple Period (s)
CHARGESTOPAT1	MULTIPARAM	4	1.00000E+000	Charge Stop At &1	Voltage > Limit	V
CHARGESTOPAT2	MULTIPARAM	0	0.00000E+000	Charge Stop At &2	None	N/A
AESBHCSELECTOR	TOGGLE	F	Save Both Half Cells
IRCOMP	TOGGLE	F	IR &Measure
EOC	QUANT	0	Open Circuit (V)
SEQUENCER	TOGGLE	TRUE	Run as Sequence
PSTATMODEL	IQUANT	53	Pstat Model
PSTATSECTION	LABEL	IFC5000-01520	Pstat Section
PSTATSERIALNO	LABEL	01520	Pstat Serial Number
CTRLMODE	IQUANT	0	Control Mode
ELECTROMETER	IQUANT	1	RE=0 or CS=1
IESTAB	IQUANT	0	I/E Stability
CASPEED	IQUANT	4	Control Amp Speed
CONVENTION	IQUANT	1	Current Convention
ICHRANGE	IQUANT	2	Ich Range
ICHRANGEMODE	TOGGLE	T	Ich Auto Range
ICHOFFSETENABLE	TOGGLE	F	Ich Offset Enable
ICHOFFSET	QUANT	0	Ich Offset (V)
ICHFILTER	IQUANT	1	Ich Filter
VCHRANGE	IQUANT	2	Vch Range
VCHRANGEMODE	TOGGLE	T	Vch Auto Range
VCHOFFSETENABLE	TOGGLE	F	Vch Offset Enable
VCHOFFSET	QUANT	0	Vch Offset (V)
VCHFILTER	IQUANT	1	Vch Filter
IERANGELOWERLIMIT	IQUANT	9	I/E Range Lower Limit
IERANGEMODE	TOGGLE	F	I/E AutoRange
IERANGE	IQUANT	10	I/E Range
ACHSELECT	IQUANT	1	Ach Select
ACHRANGE	IQUANT	2	Ach Range
ACHOFFSETENABLE	TOGGLE	F	Ach Offset Enable
ACHOFFSET	QUANT	0	Ach Offset (V)
ACHFILTER	IQUANT	1	Ach Filter
CABLEID	IQUANT	14	Cable ID
DCCALDATE	LABEL	20-10-2016	DC Calibration Date
ACCALDATE	LABEL	12/3/2015	AC Calibration Date
FRAMEWORKVERSION	QUANT	7.01	Framework Version
INSTRUMENTVERSION	LABEL	4.00	Instrument Version
CURVE	TABLE	79
	Pt	T	Vf	Im	Vu	Pwr	Sig	Ach	Temp	IERange	Over
	#	s	V	A	V	W	V	V	deg C	#	bits
	0	0.013333	5.59677E-001	5.99404E-003	0.00000E+000	3.35473E-003	3.59960E-001	-1.01670E+000	3.57740E+000	10	...........
	1	0.026667	5.67659E-001	6.00034E-003	0.00000E+000	3.40615E-003	3.59960E-001	-1.02438E+000	3.57740E+000	10	...........
	2	0.04	5.74941E-001	5.99531E-003	0.00000E+000	3.44695E-003	3.59960E-001	-1.01348E+000	3.57740E+000	10	...........
	3	0.053333	5.81812E-001	5.99567E-003	0.00000E+000	3.48835E-003	3.59960E-001	-1.01681E+000	3.57740E+000	10	...........
	4	0.066667	5.88443E-001	5.99500E-003	0.00000E+000	3.52772E-003	3.59960E-001	-1.02442E+000	3.57740E+000	10	...........
	5	0.08	5.94863E-001	5.99741E-003	0.00000E+000	3.56764E-003	3.59960E-001	-1.01294E+000	3.57740E+000	10	...........
	6	0.093333	6.01143E-001	5.99405E-003	0.00000E+000	3.60328E-003	3.59960E-001	-1.01645E+000	3.57740E+000	10	...........
	7	0.106667	6.07294E-001	5.99430E-003	0.00000E+000	3.64030E-003	3.59960E-001	-1.02439E+000	3.57740E+000	10	...........
	8	0.12	6.13384E-001	5.99394E-003	0.00000E+000	3.67658E-003	3.59960E-001	-1.01329E+000	3.57740E+000	10	...........
	9	0.133333	6.19430E-001	5.99405E-003	0.00000E+000	3.71289E-003	3.59960E-001	-1.01665E+000	3.57740E+000	10	...........
	10	0.146667	6.25363E-001	5.99588E-003	0.00000E+000	3.74960E-003	3.59960E-001	-1.02442E+000	3.57740E+000	10	...........
	11	0.16	6.31239E-001	5.99817E-003	0.00000E+000	3.78628E-003	3.59960E-001	-1.01334E+000	3.57740E+000	10	...........
	12	0.173333	6.37074E-001	5.99470E-003	0.00000E+000	3.81906E-003	3.59960E-001	-1.01662E+000	3.57740E+000	10	...........
	13	0.186667	6.42872E-001	5.99289E-003	0.00000E+000	3.85266E-003	3.59960E-001	-1.02449E+000	3.57740E+000	10	...........
	14	0.2	6.48620E-001	5.99409E-003	0.00000E+000	3.88789E-003	3.59960E-001	-1.01341E+000	3.57740E+000	10	...........
	15	0.213333	6.54405E-001	5.99688E-003	0.00000E+000	3.92439E-003	3.59960E-001	-1.01647E+000	3.57740E+000	10	...........
	16	0.226667	6.60081E-001	5.99420E-003	0.00000E+000	3.95666E-003	3.59960E-001	-1.02438E+000	3.57740E+000	10	...........
	17	0.24	6.65762E-001	5.99467E-003	0.00000E+000	3.99102E-003	3.59960E-001	-1.01298E+000	3.57740E+000	10	...........
	18	0.253333	6.71459E-001	5.99573E-003	0.00000E+000	4.02589E-003	3.59960E-001	-1.01621E+000	3.57740E+000	10	...........
	19	0.266667	6.77075E-001	5.99758E-003	0.00000E+000	4.06081E-003	3.59960E-001	-1.02401E+000	3.57740E+000	10	...........
	20	0.28	6.82730E-001	5.99133E-003	0.00000E+000	4.09046E-003	3.59960E-001	-1.01261E+000	3.57740E+000	10	...........
	21	0.293333	6.88339E-001	5.99409E-003	0.00000E+000	4.12597E-003	3.59960E-001	-1.01583E+000	3.57740E+000	10	...........
	22	0.306667	6.93951E-001	5.99638E-003	0.00000E+000	4.16119E-003	3.59960E-001	-1.02401E+000	3.57740E+000	10	...........
	23	0.32	6.99572E-001	5.99659E-003	0.00000E+000	4.19504E-003	3.59960E-001	-1.01293E+000	3.57740E+000	10	...........
	24	0.333333	7.05164E-001	5.99613E-003	0.00000E+000	4.22825E-003	3.59960E-001	-1.01616E+000	3.57740E+000	10	...........
	25	0.346667	7.10703E-001	5.99337E-003	0.00000E+000	4.25951E-003	3.59960E-001	-1.02378E+000	3.57740E+000	10	...........
	26	0.36	7.16293E-001	5.99266E-003	0.00000E+000	4.29250E-003	3.59960E-001	-1.01267E+000	3.57740E+000	10	...........
	27	0.373333	7.21916E-001	5.99041E-003	0.00000E+000	4.32457E-003	3.59960E-001	-1.01602E+000	3.57740E+000	10	...........
	28	0.386667	7.27447E-001	5.99473E-003	0.00000E+000	4.36085E-003	3.59960E-001	-1.02407E+000	3.57740E+000	10	...........
	29	0.4	7.33057E-001	5.99478E-003	0.00000E+000	4.39451E-003	3.59960E-001	-1.01279E+000	3.57740E+000	10	...........
	30	0.413333	7.38584E-001	5.99195E-003	0.00000E+000	4.42555E-003	3.59960E-001	-1.01585E+000	3.57740E+000	10	...........
	31	0.426667	7.44169E-001	5.99363E-003	0.00000E+000	4.46028E-003	3.59960E-001	-1.02381E+000	3.57740E+000	10	...........
	32	0.44	7.49740E-001	5.99162E-003	0.00000E+000	4.49216E-003	3.59960E-001	-1.01262E+000	3.57740E+000	10	...........
	33	0.453333	7.55310E-001	5.99497E-003	0.00000E+000	4.52806E-003	3.59960E-001	-1.01620E+000	3.57740E+000	10	...........
	34	0.466667	7.60826E-001	5.99418E-003	0.00000E+000	4.56052E-003	3.59960E-001	-1.02405E+000	3.57740E+000	10	...........
	35	0.48	7.66370E-001	5.99397E-003	0.00000E+000	4.59360E-003	3.59960E-001	-1.01282E+000	3.57740E+000	10	...........
	36	0.493333	7.71991E-001	5.99441E-003	0.00000E+000	4.62763E-003	3.59960E-001	-1.01588E+000	3.57740E+000	10	...........
	37	0.506667	7.77570E-001	5.99299E-003	0.00000E+000	4.65997E-003	3.59960E-001	-1.02410E+000	3.57740E+000	10	...........
	38	0.52	7.83146E-001	5.99312E-003	0.00000E+000	4.69349E-003	3.59960E-001	-1.01272E+000	3.57740E+000	10	...........
	39	0.533333	7.88666E-001	5.99010E-003	0.00000E+000	4.72419E-003	3.59960E-001	-1.01586E+000	3.57740E+000	10	...........
	40	0.546667	7.94257E-001	5.99273E-003	0.00000E+000	4.75976E-003	3.59960E-001	-1.02404E+000	3.57740E+000	10	...........
	41	0.56	7.99811E-001	5.99483E-003	0.00000E+000	4.79474E-003	3.59960E-001	-1.01235E+000	3.57740E+000	10	...........
	42	0.573333	8.05307E-001	5.99463E-003	0.00000E+000	4.82751E-003	3.59960E-001	-1.01556E+000	3.57740E+000	10	...........
[...]
	49	0.666667	8.44196E-001	5.99640E-003	0.00000E+000	5.06214E-003	3.59960E-001	-1.02363E+000	3.57740E+000	10	...........
	50	0.68	8.49742E-001	5.99205E-003	0.00000E+000	5.09170E-003	3.59960E-001	-1.01229E+000	3.57740E+000	10	...........
	51	0.693333	8.55294E-001	5.99487E-003	0.00000E+000	5.12737E-003	3.59960E-001	-1.01515E+000	3.57740E+000	10	...........
	52	0.706667	8.60876E-001	5.99424E-003	0.00000E+000	5.16030E-003	3.59960E-001	-1.02366E+000	3.57740E+000	10	...........
	53	0.72	8.66387E-001	5.99111E-003	0.00000E+000	5.19062E-003	3.59960E-001	-1.01244E+000	3.57740E+000	10	...........
	54	0.733333	8.72003E-001	5.99238E-003	0.00000E+000	5.22538E-003	3.59960E-001	-1.01507E+000	3.57740E+000	10	...........
	55	0.746667	8.77529E-001	5.99464E-003	0.00000E+000	5.26047E-003	3.59960E-001	-1.02349E+000	3.57740E+000	10	...........
	56	0.76	8.83088E-001	5.99513E-003	0.00000E+000	5.29423E-003	3.59960E-001	-1.01228E+000	3.57740E+000	10	...........
	57	0.773333	8.88600E-001	5.99106E-003	0.00000E+000	5.32366E-003	3.59960E-001	-1.01529E+000	3.57740E+000	10	...........
	58	0.786667	8.94130E-001	5.99605E-003	0.00000E+000	5.36125E-003	3.59960E-001	-1.02372E+000	3.57740E+000	10	...........
	59	0.8	8.99672E-001	5.99400E-003	0.00000E+000	5.39263E-003	3.59960E-001	-1.01245E+000	3.57740E+000	10	...........
	60	0.813333	9.05181E-001	5.99453E-003	0.00000E+000	5.42614E-003	3.59960E-001	-1.01516E+000	3.57740E+000	10	...........
	61	0.826667	9.10693E-001	5.99539E-003	0.00000E+000	5.45996E-003	3.59960E-001	-1.02372E+000	3.57740E+000	10	...........
	62	0.84	9.16173E-001	5.99516E-003	0.00000E+000	5.49260E-003	3.59960E-001	-1.01245E+000	3.57740E+000	10	...........
	63	0.853333	9.21681E-001	5.99312E-003	0.00000E+000	5.52375E-003	3.59960E-001	-1.01553E+000	3.57740E+000	10	...........
	64	0.866667	9.27168E-001	5.99366E-003	0.00000E+000	5.55713E-003	3.59960E-001	-1.02405E+000	3.57740E+000	10	...........
	65	0.88	9.32624E-001	5.99454E-003	0.00000E+000	5.59065E-003	3.59960E-001	-1.01217E+000	3.57740E+000	10	...........
	66	0.893333	9.38102E-001	5.99506E-003	0.00000E+000	5.62398E-003	3.59960E-001	-1.01499E+000	3.57740E+000	10	...........
	67	0.906667	9.43553E-001	5.99770E-003	0.00000E+000	5.65915E-003	3.59960E-001	-1.02363E+000	3.57740E+000	10	...........
	68	0.92	9.48978E-001	5.99276E-003	0.00000E+000	5.68699E-003	3.59960E-001	-1.01246E+000	3.57858E+000	10	...........
	69	0.933333	9.54362E-001	5.99684E-003	0.00000E+000	5.72315E-003	3.59960E-001	-1.01504E+000	3.57870E+000	10	...........
	70	0.946667	9.59740E-001	5.99757E-003	0.00000E+000	5.75611E-003	3.59960E-001	-1.02339E+000	3.57870E+000	10	...........
	71	0.96	9.65062E-001	5.99005E-003	0.00000E+000	5.78077E-003	3.59960E-001	-1.01226E+000	3.57870E+000	10	...........
	72	0.97333	9.70446E-001	5.99419E-003	0.00000E+000	5.81703E-003	3.59960E-001	-1.01508E+000	3.57870E+000	10	...........
	73	0.98667	9.75798E-001	5.99343E-003	0.00000E+000	5.84837E-003	3.59960E-001	-1.02357E+000	3.57870E+000	10	...........
	74	1	9.81084E-001	5.99206E-003	0.00000E+000	5.87872E-003	3.59960E-001	-1.01212E+000	3.57870E+000	10	...........
	75	1.01333	9.86344E-001	5.99382E-003	0.00000E+000	5.91197E-003	3.59960E-001	-1.01472E+000	3.57870E+000	10	...........
	76	1.02667	9.91572E-001	5.99279E-003	0.00000E+000	5.94228E-003	3.59960E-001	-1.02338E+000	3.57870E+000	10	...........
	77	1.04	9.96793E-001	5.99708E-003	0.00000E+000	5.97784E-003	3.59960E-001	-1.01226E+000	3.57870E+000	10	...........
	78	1.04333	1.00003E+000	5.99717E-003	0.00000E+000	5.99738E-003	3.59960E-001	-1.02781E+000	3.57870E+000	10	...........
STARTTIMEOFFSET	QUANT	36.375	Start Time Offset (s)