Folder: Tesis/Data/CV_CRGO300517_1/PWRCCD_CRGO300517_1/CHARGE_DISCHARGE (part 110)

File: CHARGE_#219.DTA
EXPLAIN
TAG	PWR800_CHARGE
TITLE	LABEL	PWR Cyclic Charge Discharge (Cell) - Charge Step	Test &Identifier
DATE	LABEL	22-6-2017	Date
TIME	LABEL	15:44:36	Time
NOTES	NOTES	3	&Notes...
	supercap test cell
	0.6mg
	6M KOH
PSTAT	PSTAT	IFC5000-01520	Potentiostat
CAPACITY	QUANT	1.00000E-003	Capacity (A-hr)
CELLTYPE	SELECTOR	1	&Cell Type
WORKINGCONNECTION	SELECTOR	0	&Working Lead
MAXCHARGETIME	VARIABLEANDUNITS	1.00000E+002	s	1.00000E+002	second(s)	Max &Charge Time
CHARGECURRENT	QUANT	6.00000E-003	&Charge Current (A)
VOLTAGEFINISH	TWOPARAM	F	1.00000E-003	3.60000E+003	&Voltage Finish	 I (A) < 	Max Time(s)
SAMPLETIME	QUANT	1.00000E-002	Sa&mple Period (s)
CHARGESTOPAT1	MULTIPARAM	4	1.00000E+000	Charge Stop At &1	Voltage > Limit	V
CHARGESTOPAT2	MULTIPARAM	0	0.00000E+000	Charge Stop At &2	None	N/A
AESBHCSELECTOR	TOGGLE	F	Save Both Half Cells
IRCOMP	TOGGLE	F	IR &Measure
EOC	QUANT	0	Open Circuit (V)
SEQUENCER	TOGGLE	TRUE	Run as Sequence
PSTATMODEL	IQUANT	53	Pstat Model
PSTATSECTION	LABEL	IFC5000-01520	Pstat Section
PSTATSERIALNO	LABEL	01520	Pstat Serial Number
CTRLMODE	IQUANT	0	Control Mode
ELECTROMETER	IQUANT	1	RE=0 or CS=1
IESTAB	IQUANT	0	I/E Stability
CASPEED	IQUANT	4	Control Amp Speed
CONVENTION	IQUANT	1	Current Convention
ICHRANGE	IQUANT	2	Ich Range
ICHRANGEMODE	TOGGLE	T	Ich Auto Range
ICHOFFSETENABLE	TOGGLE	F	Ich Offset Enable
ICHOFFSET	QUANT	0	Ich Offset (V)
ICHFILTER	IQUANT	1	Ich Filter
VCHRANGE	IQUANT	2	Vch Range
VCHRANGEMODE	TOGGLE	T	Vch Auto Range
VCHOFFSETENABLE	TOGGLE	F	Vch Offset Enable
VCHOFFSET	QUANT	0	Vch Offset (V)
VCHFILTER	IQUANT	1	Vch Filter
IERANGELOWERLIMIT	IQUANT	9	I/E Range Lower Limit
IERANGEMODE	TOGGLE	F	I/E AutoRange
IERANGE	IQUANT	10	I/E Range
ACHSELECT	IQUANT	1	Ach Select
ACHRANGE	IQUANT	2	Ach Range
ACHOFFSETENABLE	TOGGLE	F	Ach Offset Enable
ACHOFFSET	QUANT	0	Ach Offset (V)
ACHFILTER	IQUANT	1	Ach Filter
CABLEID	IQUANT	14	Cable ID
DCCALDATE	LABEL	20-10-2016	DC Calibration Date
ACCALDATE	LABEL	12/3/2015	AC Calibration Date
FRAMEWORKVERSION	QUANT	7.01	Framework Version
INSTRUMENTVERSION	LABEL	4.00	Instrument Version
CURVE	TABLE	65
	Pt	T	Vf	Im	Vu	Pwr	Sig	Ach	Temp	IERange	Over
	#	s	V	A	V	W	V	V	deg C	#	bits
	0	0.013333	6.08460E-001	5.99638E-003	0.00000E+000	3.64856E-003	3.59960E-001	-1.06871E+000	3.57710E+000	10	...........
	1	0.026667	6.16995E-001	5.99256E-003	0.00000E+000	3.69738E-003	3.59960E-001	-1.07425E+000	3.57710E+000	10	...........
	2	0.04	6.24805E-001	5.99362E-003	0.00000E+000	3.74485E-003	3.59960E-001	-1.07677E+000	3.57710E+000	10	...........
	3	0.053333	6.32199E-001	5.98896E-003	0.00000E+000	3.78622E-003	3.59960E-001	-1.07000E+000	3.57710E+000	10	...........
	4	0.066667	6.39298E-001	5.99632E-003	0.00000E+000	3.83343E-003	3.59960E-001	-1.07579E+000	3.57710E+000	10	...........
	5	0.08	6.46236E-001	5.99653E-003	0.00000E+000	3.87517E-003	3.59960E-001	-1.07780E+000	3.57704E+000	10	...........
	6	0.093333	6.53026E-001	5.99863E-003	0.00000E+000	3.91726E-003	3.59960E-001	-1.07123E+000	3.57700E+000	10	...........
	7	0.106667	6.59721E-001	5.99259E-003	0.00000E+000	3.95344E-003	3.59960E-001	-1.07692E+000	3.57700E+000	10	...........
	8	0.12	6.66322E-001	5.99277E-003	0.00000E+000	3.99311E-003	3.59960E-001	-1.07893E+000	3.57700E+000	10	...........
	9	0.133333	6.72843E-001	5.99395E-003	0.00000E+000	4.03299E-003	3.59960E-001	-1.07203E+000	3.57700E+000	10	...........
	10	0.146667	6.79317E-001	5.99287E-003	0.00000E+000	4.07106E-003	3.59960E-001	-1.07779E+000	3.57700E+000	10	...........
	11	0.16	6.85730E-001	5.99645E-003	0.00000E+000	4.11195E-003	3.59960E-001	-1.07993E+000	3.57700E+000	10	...........
	12	0.173333	6.92120E-001	5.99460E-003	0.00000E+000	4.14899E-003	3.59960E-001	-1.07361E+000	3.57700E+000	10	...........
	13	0.186667	6.98426E-001	5.99169E-003	0.00000E+000	4.18476E-003	3.59960E-001	-1.07975E+000	3.57700E+000	10	...........
	14	0.2	7.04751E-001	5.99188E-003	0.00000E+000	4.22279E-003	3.59960E-001	-1.08171E+000	3.57700E+000	10	...........
	15	0.213333	7.11003E-001	5.99437E-003	0.00000E+000	4.26201E-003	3.59960E-001	-1.07545E+000	3.57700E+000	10	...........
	16	0.226667	7.17274E-001	5.99216E-003	0.00000E+000	4.29803E-003	3.59960E-001	-1.08185E+000	3.57700E+000	10	...........
	17	0.24	7.23545E-001	5.99396E-003	0.00000E+000	4.33690E-003	3.59960E-001	-1.08403E+000	3.57700E+000	10	...........
	18	0.253333	7.29749E-001	5.99658E-003	0.00000E+000	4.37600E-003	3.59960E-001	-1.07837E+000	3.57700E+000	10	...........
	19	0.266667	7.35945E-001	5.99369E-003	0.00000E+000	4.41102E-003	3.59960E-001	-1.08464E+000	3.57700E+000	10	...........
	20	0.28	7.42161E-001	6.00020E-003	0.00000E+000	4.45311E-003	3.59960E-001	-1.08648E+000	3.57700E+000	10	...........
	21	0.293333	7.48337E-001	5.99211E-003	0.00000E+000	4.48412E-003	3.59960E-001	-1.08040E+000	3.57700E+000	10	...........
	22	0.306667	7.54518E-001	5.99662E-003	0.00000E+000	4.52456E-003	3.59960E-001	-1.08708E+000	3.57700E+000	10	...........
	23	0.32	7.60682E-001	5.99476E-003	0.00000E+000	4.56011E-003	3.59960E-001	-1.08907E+000	3.57700E+000	10	...........
	24	0.333333	7.66819E-001	5.99070E-003	0.00000E+000	4.59379E-003	3.59960E-001	-1.08320E+000	3.57700E+000	10	...........
	25	0.346667	7.72998E-001	5.99260E-003	0.00000E+000	4.63227E-003	3.59960E-001	-1.08959E+000	3.57700E+000	10	...........
	26	0.36	7.79132E-001	5.99451E-003	0.00000E+000	4.67052E-003	3.59960E-001	-1.09113E+000	3.57700E+000	10	...........
	27	0.373333	7.85253E-001	5.99211E-003	0.00000E+000	4.70533E-003	3.59960E-001	-1.08522E+000	3.57700E+000	10	...........
	28	0.386667	7.91404E-001	5.99293E-003	0.00000E+000	4.74283E-003	3.59960E-001	-1.09159E+000	3.57700E+000	10	...........
	29	0.4	7.97593E-001	5.99119E-003	0.00000E+000	4.77853E-003	3.59960E-001	-1.09254E+000	3.57700E+000	10	...........
	30	0.413333	8.03690E-001	5.98982E-003	0.00000E+000	4.81396E-003	3.59960E-001	-1.08616E+000	3.57700E+000	10	...........
	31	0.426667	8.09801E-001	5.99109E-003	0.00000E+000	4.85159E-003	3.59960E-001	-1.09219E+000	3.57700E+000	10	...........
	32	0.44	8.15877E-001	5.99144E-003	0.00000E+000	4.88828E-003	3.59960E-001	-1.09294E+000	3.57700E+000	10	...........
	33	0.453333	8.22001E-001	5.99785E-003	0.00000E+000	4.93024E-003	3.59960E-001	-1.08664E+000	3.57700E+000	10	...........
	34	0.466667	8.28067E-001	5.99119E-003	0.00000E+000	4.96111E-003	3.59960E-001	-1.09242E+000	3.57700E+000	10	...........
	35	0.48	8.34123E-001	5.99338E-003	0.00000E+000	4.99922E-003	3.59960E-001	-1.09327E+000	3.57700E+000	10	...........
	36	0.493333	8.40154E-001	5.99158E-003	0.00000E+000	5.03385E-003	3.59960E-001	-1.08672E+000	3.57700E+000	10	...........
	37	0.506667	8.46262E-001	5.99723E-003	0.00000E+000	5.07523E-003	3.59960E-001	-1.09314E+000	3.57700E+000	10	...........
	38	0.52	8.52309E-001	5.98838E-003	0.00000E+000	5.10395E-003	3.59960E-001	-1.09380E+000	3.57700E+000	10	...........
	39	0.533333	8.58309E-001	5.99254E-003	0.00000E+000	5.14345E-003	3.59960E-001	-1.08728E+000	3.57700E+000	10	...........
	40	0.546667	8.64304E-001	5.99191E-003	0.00000E+000	5.17883E-003	3.59960E-001	-1.09351E+000	3.57700E+000	10	...........
	41	0.56	8.70360E-001	5.99642E-003	0.00000E+000	5.21904E-003	3.59960E-001	-1.09409E+000	3.57700E+000	10	...........
	42	0.573333	8.76336E-001	5.99383E-003	0.00000E+000	5.25261E-003	3.59960E-001	-1.08770E+000	3.57700E+000	10	...........
	43	0.586667	8.82322E-001	5.99340E-003	0.00000E+000	5.28810E-003	3.59960E-001	-1.09414E+000	3.57700E+000	10	...........
	44	0.6	8.88219E-001	5.99419E-003	0.00000E+000	5.32415E-003	3.59960E-001	-1.09450E+000	3.57700E+000	10	...........
	45	0.613333	8.94166E-001	5.99400E-003	0.00000E+000	5.35963E-003	3.59960E-001	-1.08803E+000	3.57700E+000	10	...........
	46	0.626667	9.00078E-001	5.99265E-003	0.00000E+000	5.39386E-003	3.59960E-001	-1.09469E+000	3.57700E+000	10	...........
	47	0.64	9.05992E-001	5.99413E-003	0.00000E+000	5.43063E-003	3.59960E-001	-1.09513E+000	3.57700E+000	10	...........
	48	0.653333	9.11858E-001	5.99088E-003	0.00000E+000	5.46283E-003	3.59960E-001	-1.08902E+000	3.57700E+000	10	...........
	49	0.666667	9.17711E-001	5.99238E-003	0.00000E+000	5.49928E-003	3.59960E-001	-1.09544E+000	3.57700E+000	10	...........
	50	0.68	9.23584E-001	5.99501E-003	0.00000E+000	5.53690E-003	3.59960E-001	-1.09546E+000	3.57700E+000	10	...........
	51	0.693333	9.29389E-001	5.99469E-003	0.00000E+000	5.57140E-003	3.59960E-001	-1.08937E+000	3.57700E+000	10	...........
	52	0.706667	9.35133E-001	5.99448E-003	0.00000E+000	5.60563E-003	3.59960E-001	-1.09628E+000	3.57700E+000	10	...........
	53	0.72	9.40865E-001	5.99281E-003	0.00000E+000	5.63842E-003	3.59960E-001	-1.09634E+000	3.57700E+000	10	...........
	54	0.733333	9.46602E-001	5.99747E-003	0.00000E+000	5.67722E-003	3.59960E-001	-1.09051E+000	3.57700E+000	10	...........
	55	0.746667	9.52306E-001	5.99546E-003	0.00000E+000	5.70951E-003	3.59960E-001	-1.09734E+000	3.57700E+000	10	...........
	56	0.76	9.57965E-001	5.99587E-003	0.00000E+000	5.74383E-003	3.59960E-001	-1.09740E+000	3.57700E+000	10	...........
	57	0.773333	9.63568E-001	5.98954E-003	0.00000E+000	5.77132E-003	3.59960E-001	-1.09141E+000	3.57700E+000	10	...........
	58	0.786667	9.69134E-001	5.99260E-003	0.00000E+000	5.80763E-003	3.59960E-001	-1.09873E+000	3.57700E+000	10	...........
	59	0.8	9.74736E-001	5.98941E-003	0.00000E+000	5.83809E-003	3.59960E-001	-1.09880E+000	3.57700E+000	10	...........
	60	0.813333	9.80244E-001	5.99147E-003	0.00000E+000	5.87310E-003	3.59960E-001	-1.09266E+000	3.57700E+000	10	...........
	61	0.826667	9.85719E-001	5.99792E-003	0.00000E+000	5.91226E-003	3.59960E-001	-1.09981E+000	3.57700E+000	10	...........
	62	0.84	9.91143E-001	5.99182E-003	0.00000E+000	5.93875E-003	3.59960E-001	-1.09985E+000	3.57700E+000	10	...........
	63	0.853333	9.96538E-001	5.99178E-003	0.00000E+000	5.97103E-003	3.59960E-001	-1.09379E+000	3.57700E+000	10	...........
	64	0.856667	9.99914E-001	5.98883E-003	0.00000E+000	5.98831E-003	3.59960E-001	-1.10739E+000	3.57700E+000	10	...........
STARTTIMEOFFSET	QUANT	405.4999	Start Time Offset (s)

File: CHARGE_#220.DTA
EXPLAIN
TAG	PWR800_CHARGE
TITLE	LABEL	PWR Cyclic Charge Discharge (Cell) - Charge Step	Test &Identifier
DATE	LABEL	22-6-2017	Date
TIME	LABEL	15:44:38	Time
NOTES	NOTES	3	&Notes...
	supercap test cell
	0.6mg
	6M KOH
PSTAT	PSTAT	IFC5000-01520	Potentiostat
CAPACITY	QUANT	1.00000E-003	Capacity (A-hr)
CELLTYPE	SELECTOR	1	&Cell Type
WORKINGCONNECTION	SELECTOR	0	&Working Lead
MAXCHARGETIME	VARIABLEANDUNITS	1.00000E+002	s	1.00000E+002	second(s)	Max &Charge Time
CHARGECURRENT	QUANT	6.00000E-003	&Charge Current (A)
VOLTAGEFINISH	TWOPARAM	F	1.00000E-003	3.60000E+003	&Voltage Finish	 I (A) < 	Max Time(s)
SAMPLETIME	QUANT	1.00000E-002	Sa&mple Period (s)
CHARGESTOPAT1	MULTIPARAM	4	1.00000E+000	Charge Stop At &1	Voltage > Limit	V
CHARGESTOPAT2	MULTIPARAM	0	0.00000E+000	Charge Stop At &2	None	N/A
AESBHCSELECTOR	TOGGLE	F	Save Both Half Cells
IRCOMP	TOGGLE	F	IR &Measure
EOC	QUANT	0	Open Circuit (V)
SEQUENCER	TOGGLE	TRUE	Run as Sequence
PSTATMODEL	IQUANT	53	Pstat Model
PSTATSECTION	LABEL	IFC5000-01520	Pstat Section
PSTATSERIALNO	LABEL	01520	Pstat Serial Number
CTRLMODE	IQUANT	0	Control Mode
ELECTROMETER	IQUANT	1	RE=0 or CS=1
IESTAB	IQUANT	0	I/E Stability
CASPEED	IQUANT	4	Control Amp Speed
CONVENTION	IQUANT	1	Current Convention
ICHRANGE	IQUANT	2	Ich Range
ICHRANGEMODE	TOGGLE	T	Ich Auto Range
ICHOFFSETENABLE	TOGGLE	F	Ich Offset Enable
ICHOFFSET	QUANT	0	Ich Offset (V)
ICHFILTER	IQUANT	1	Ich Filter
VCHRANGE	IQUANT	2	Vch Range
VCHRANGEMODE	TOGGLE	T	Vch Auto Range
VCHOFFSETENABLE	TOGGLE	F	Vch Offset Enable
VCHOFFSET	QUANT	0	Vch Offset (V)
VCHFILTER	IQUANT	1	Vch Filter
IERANGELOWERLIMIT	IQUANT	9	I/E Range Lower Limit
IERANGEMODE	TOGGLE	F	I/E AutoRange
IERANGE	IQUANT	10	I/E Range
ACHSELECT	IQUANT	1	Ach Select
ACHRANGE	IQUANT	2	Ach Range
ACHOFFSETENABLE	TOGGLE	F	Ach Offset Enable
ACHOFFSET	QUANT	0	Ach Offset (V)
ACHFILTER	IQUANT	1	Ach Filter
CABLEID	IQUANT	14	Cable ID
DCCALDATE	LABEL	20-10-2016	DC Calibration Date
ACCALDATE	LABEL	12/3/2015	AC Calibration Date
FRAMEWORKVERSION	QUANT	7.01	Framework Version
INSTRUMENTVERSION	LABEL	4.00	Instrument Version
CURVE	TABLE	65
	Pt	T	Vf	Im	Vu	Pwr	Sig	Ach	Temp	IERange	Over
	#	s	V	A	V	W	V	V	deg C	#	bits
	0	0.013333	6.09556E-001	5.99296E-003	0.00000E+000	3.65304E-003	3.59960E-001	-1.08361E+000	3.57820E+000	10	...........
	1	0.026667	6.17962E-001	5.99677E-003	0.00000E+000	3.70578E-003	3.59960E-001	-1.09086E+000	3.57820E+000	10	...........
	2	0.04	6.25673E-001	5.99495E-003	0.00000E+000	3.75088E-003	3.59960E-001	-1.09000E+000	3.57820E+000	10	...........
	3	0.053333	6.33026E-001	5.99677E-003	0.00000E+000	3.79611E-003	3.59960E-001	-1.08375E+000	3.57820E+000	10	...........
	4	0.066667	6.40127E-001	5.99126E-003	0.00000E+000	3.83517E-003	3.59960E-001	-1.09067E+000	3.57820E+000	10	...........
	5	0.08	6.47063E-001	5.99053E-003	0.00000E+000	3.87625E-003	3.59960E-001	-1.08958E+000	3.57820E+000	10	...........
	6	0.093333	6.53887E-001	5.99530E-003	0.00000E+000	3.92025E-003	3.59960E-001	-1.08371E+000	3.57820E+000	10	...........
	7	0.106667	6.60504E-001	5.99481E-003	0.00000E+000	3.95960E-003	3.59960E-001	-1.09096E+000	3.57820E+000	10	...........
	8	0.12	6.67142E-001	5.99385E-003	0.00000E+000	3.99875E-003	3.59960E-001	-1.08967E+000	3.57820E+000	10	...........
	9	0.133333	6.73681E-001	5.99633E-003	0.00000E+000	4.03961E-003	3.59960E-001	-1.08348E+000	3.57820E+000	10	...........
	10	0.146667	6.80152E-001	5.99148E-003	0.00000E+000	4.07511E-003	3.59960E-001	-1.09060E+000	3.57820E+000	10	...........
	11	0.16	6.86557E-001	5.99244E-003	0.00000E+000	4.11415E-003	3.59960E-001	-1.08946E+000	3.57820E+000	10	...........
	12	0.173333	6.92939E-001	5.99332E-003	0.00000E+000	4.15301E-003	3.59960E-001	-1.08354E+000	3.57820E+000	10	...........
	13	0.186667	6.99280E-001	5.99465E-003	0.00000E+000	4.19194E-003	3.59960E-001	-1.09066E+000	3.57820E+000	10	...........
	14	0.2	7.05590E-001	5.99647E-003	0.00000E+000	4.23105E-003	3.59960E-001	-1.08899E+000	3.57820E+000	10	...........
	15	0.213333	7.11919E-001	5.99295E-003	0.00000E+000	4.26649E-003	3.59960E-001	-1.08291E+000	3.57820E+000	10	...........
	16	0.226667	7.18207E-001	5.99399E-003	0.00000E+000	4.30493E-003	3.59960E-001	-1.09025E+000	3.57820E+000	10	...........
	17	0.24	7.24440E-001	5.99207E-003	0.00000E+000	4.34089E-003	3.59960E-001	-1.08897E+000	3.57820E+000	10	...........
	18	0.253333	7.30698E-001	5.99445E-003	0.00000E+000	4.38013E-003	3.59960E-001	-1.08289E+000	3.57820E+000	10	...........
	19	0.266667	7.36913E-001	5.99387E-003	0.00000E+000	4.41696E-003	3.59960E-001	-1.09013E+000	3.57820E+000	10	...........
	20	0.28	7.43114E-001	5.99303E-003	0.00000E+000	4.45350E-003	3.59960E-001	-1.08824E+000	3.57820E+000	10	...........
	21	0.293333	7.49324E-001	5.99504E-003	0.00000E+000	4.49223E-003	3.59960E-001	-1.08269E+000	3.57820E+000	10	...........
	22	0.306667	7.55510E-001	5.99216E-003	0.00000E+000	4.52714E-003	3.59960E-001	-1.09004E+000	3.57820E+000	10	...........
	23	0.32	7.61681E-001	5.98943E-003	0.00000E+000	4.56204E-003	3.59960E-001	-1.08821E+000	3.57820E+000	10	...........
	24	0.333333	7.67857E-001	5.99429E-003	0.00000E+000	4.60276E-003	3.59960E-001	-1.08267E+000	3.57820E+000	10	...........
	25	0.346667	7.74017E-001	5.99714E-003	0.00000E+000	4.64189E-003	3.59960E-001	-1.09007E+000	3.57820E+000	10	...........
	26	0.36	7.80190E-001	5.99247E-003	0.00000E+000	4.67526E-003	3.59960E-001	-1.08825E+000	3.57820E+000	10	...........
	27	0.373333	7.86329E-001	5.99298E-003	0.00000E+000	4.71245E-003	3.59960E-001	-1.08277E+000	3.57820E+000	10	...........
	28	0.386667	7.92467E-001	5.99446E-003	0.00000E+000	4.75041E-003	3.59960E-001	-1.09009E+000	3.57820E+000	10	...........
	29	0.4	7.98572E-001	5.99917E-003	0.00000E+000	4.79077E-003	3.59960E-001	-1.08793E+000	3.57820E+000	10	...........
	30	0.413333	8.04707E-001	5.99570E-003	0.00000E+000	4.82478E-003	3.59960E-001	-1.08248E+000	3.57820E+000	10	...........
	31	0.426667	8.10798E-001	5.99368E-003	0.00000E+000	4.85966E-003	3.59960E-001	-1.09016E+000	3.57820E+000	10	...........
	32	0.44	8.16889E-001	5.99311E-003	0.00000E+000	4.89571E-003	3.59960E-001	-1.08803E+000	3.57820E+000	10	...........
	33	0.453333	8.23004E-001	5.99570E-003	0.00000E+000	4.93448E-003	3.59960E-001	-1.08252E+000	3.57820E+000	10	...........
	34	0.466667	8.29083E-001	5.99489E-003	0.00000E+000	4.97026E-003	3.59960E-001	-1.09020E+000	3.57820E+000	10	...........
	35	0.48	8.35156E-001	5.99461E-003	0.00000E+000	5.00643E-003	3.59960E-001	-1.08796E+000	3.57820E+000	10	...........
	36	0.493333	8.41225E-001	5.99434E-003	0.00000E+000	5.04259E-003	3.59960E-001	-1.08260E+000	3.57820E+000	10	...........
	37	0.506667	8.47354E-001	5.99700E-003	0.00000E+000	5.08158E-003	3.59960E-001	-1.09017E+000	3.57820E+000	10	...........
	38	0.52	8.53357E-001	5.99475E-003	0.00000E+000	5.11566E-003	3.59960E-001	-1.08743E+000	3.57820E+000	10	...........
	39	0.533333	8.59396E-001	5.99361E-003	0.00000E+000	5.15089E-003	3.59960E-001	-1.08182E+000	3.57820E+000	10	...........
	40	0.546667	8.65425E-001	5.99199E-003	0.00000E+000	5.18562E-003	3.59960E-001	-1.08963E+000	3.57820E+000	10	...........
	41	0.56	8.71436E-001	5.99150E-003	0.00000E+000	5.22121E-003	3.59960E-001	-1.08734E+000	3.57820E+000	10	...........
	42	0.573333	8.77416E-001	5.99245E-003	0.00000E+000	5.25787E-003	3.59960E-001	-1.08189E+000	3.57820E+000	10	...........
	43	0.586667	8.83388E-001	5.99358E-003	0.00000E+000	5.29466E-003	3.59960E-001	-1.08967E+000	3.57820E+000	10	...........
	44	0.6	8.89337E-001	5.99515E-003	0.00000E+000	5.33171E-003	3.59960E-001	-1.08699E+000	3.57752E+000	10	...........
	45	0.613333	8.95270E-001	5.99357E-003	0.00000E+000	5.36587E-003	3.59960E-001	-1.08160E+000	3.57730E+000	10	...........
	46	0.626667	9.01206E-001	5.99278E-003	0.00000E+000	5.40073E-003	3.59960E-001	-1.08974E+000	3.57730E+000	10	...........
	47	0.64	9.07118E-001	5.99576E-003	0.00000E+000	5.43887E-003	3.59960E-001	-1.08715E+000	3.57730E+000	10	...........
	48	0.653333	9.12994E-001	5.99239E-003	0.00000E+000	5.47102E-003	3.59960E-001	-1.08152E+000	3.57730E+000	10	...........
	49	0.666667	9.18858E-001	5.99017E-003	0.00000E+000	5.50412E-003	3.59960E-001	-1.08936E+000	3.57730E+000	10	...........
	50	0.68	9.24719E-001	5.99757E-003	0.00000E+000	5.54606E-003	3.59960E-001	-1.08707E+000	3.57730E+000	10	...........
	51	0.693333	9.30533E-001	5.99651E-003	0.00000E+000	5.57996E-003	3.59960E-001	-1.08176E+000	3.57730E+000	10	...........
	52	0.706667	9.36274E-001	5.99190E-003	0.00000E+000	5.61006E-003	3.59960E-001	-1.08957E+000	3.57730E+000	10	...........
	53	0.72	9.42003E-001	5.99021E-003	0.00000E+000	5.64280E-003	3.59960E-001	-1.08680E+000	3.57730E+000	10	...........
	54	0.733333	9.47778E-001	5.99464E-003	0.00000E+000	5.68159E-003	3.59960E-001	-1.08163E+000	3.57730E+000	10	...........
	55	0.746667	9.53437E-001	5.99904E-003	0.00000E+000	5.71970E-003	3.59960E-001	-1.08958E+000	3.57730E+000	10	...........
	56	0.76	9.59074E-001	5.99548E-003	0.00000E+000	5.75011E-003	3.59960E-001	-1.08666E+000	3.57730E+000	10	...........
	57	0.773333	9.64687E-001	5.99376E-003	0.00000E+000	5.78210E-003	3.59960E-001	-1.08169E+000	3.57730E+000	10	...........
	58	0.786667	9.70244E-001	5.99277E-003	0.00000E+000	5.81445E-003	3.59960E-001	-1.08970E+000	3.57730E+000	10	...........
	59	0.8	9.75819E-001	5.99388E-003	0.00000E+000	5.84895E-003	3.59960E-001	-1.08680E+000	3.57730E+000	10	...........
	60	0.813333	9.81330E-001	5.98949E-003	0.00000E+000	5.87767E-003	3.59960E-001	-1.08146E+000	3.57730E+000	10	...........
	61	0.826667	9.86838E-001	5.99566E-003	0.00000E+000	5.91674E-003	3.59960E-001	-1.08975E+000	3.57730E+000	10	...........
	62	0.84	9.92247E-001	5.99941E-003	0.00000E+000	5.95290E-003	3.59960E-001	-1.08658E+000	3.57730E+000	10	...........
	63	0.853333	9.97643E-001	5.99384E-003	0.00000E+000	5.97972E-003	3.59960E-001	-1.08128E+000	3.57730E+000	10	...........
	64	0.855	1.00069E+000	5.99354E-003	0.00000E+000	5.99770E-003	3.59960E-001	-1.09380E+000	3.57730E+000	10	...........
STARTTIMEOFFSET	QUANT	407.2033	Start Time Offset (s)