Folder: Tesis/Data/CV_CRGO300517_1/PWRCCD_CRGO300517_1/CHARGE_DISCHARGE (part 190)

File: CHARGE_#386.DTA
EXPLAIN
TAG	PWR800_CHARGE
TITLE	LABEL	PWR Cyclic Charge Discharge (Cell) - Charge Step	Test &Identifier
DATE	LABEL	22-6-2017	Date
TIME	LABEL	15:51:25	Time
NOTES	NOTES	3	&Notes...
	supercap test cell
	0.6mg
	6M KOH
PSTAT	PSTAT	IFC5000-01520	Potentiostat
CAPACITY	QUANT	1.00000E-003	Capacity (A-hr)
CELLTYPE	SELECTOR	1	&Cell Type
WORKINGCONNECTION	SELECTOR	0	&Working Lead
MAXCHARGETIME	VARIABLEANDUNITS	1.00000E+002	s	1.00000E+002	second(s)	Max &Charge Time
CHARGECURRENT	QUANT	6.00000E-003	&Charge Current (A)
VOLTAGEFINISH	TWOPARAM	F	1.00000E-003	3.60000E+003	&Voltage Finish	 I (A) < 	Max Time(s)
SAMPLETIME	QUANT	1.00000E-002	Sa&mple Period (s)
CHARGESTOPAT1	MULTIPARAM	4	1.00000E+000	Charge Stop At &1	Voltage > Limit	V
CHARGESTOPAT2	MULTIPARAM	0	0.00000E+000	Charge Stop At &2	None	N/A
AESBHCSELECTOR	TOGGLE	F	Save Both Half Cells
IRCOMP	TOGGLE	F	IR &Measure
EOC	QUANT	0	Open Circuit (V)
SEQUENCER	TOGGLE	TRUE	Run as Sequence
PSTATMODEL	IQUANT	53	Pstat Model
PSTATSECTION	LABEL	IFC5000-01520	Pstat Section
PSTATSERIALNO	LABEL	01520	Pstat Serial Number
CTRLMODE	IQUANT	0	Control Mode
ELECTROMETER	IQUANT	1	RE=0 or CS=1
IESTAB	IQUANT	0	I/E Stability
CASPEED	IQUANT	4	Control Amp Speed
CONVENTION	IQUANT	1	Current Convention
ICHRANGE	IQUANT	2	Ich Range
ICHRANGEMODE	TOGGLE	T	Ich Auto Range
ICHOFFSETENABLE	TOGGLE	F	Ich Offset Enable
ICHOFFSET	QUANT	0	Ich Offset (V)
ICHFILTER	IQUANT	1	Ich Filter
VCHRANGE	IQUANT	2	Vch Range
VCHRANGEMODE	TOGGLE	T	Vch Auto Range
VCHOFFSETENABLE	TOGGLE	F	Vch Offset Enable
VCHOFFSET	QUANT	0	Vch Offset (V)
VCHFILTER	IQUANT	1	Vch Filter
IERANGELOWERLIMIT	IQUANT	9	I/E Range Lower Limit
IERANGEMODE	TOGGLE	F	I/E AutoRange
IERANGE	IQUANT	10	I/E Range
ACHSELECT	IQUANT	1	Ach Select
ACHRANGE	IQUANT	2	Ach Range
ACHOFFSETENABLE	TOGGLE	F	Ach Offset Enable
ACHOFFSET	QUANT	0	Ach Offset (V)
ACHFILTER	IQUANT	1	Ach Filter
CABLEID	IQUANT	14	Cable ID
DCCALDATE	LABEL	20-10-2016	DC Calibration Date
ACCALDATE	LABEL	12/3/2015	AC Calibration Date
FRAMEWORKVERSION	QUANT	7.01	Framework Version
INSTRUMENTVERSION	LABEL	4.00	Instrument Version
CURVE	TABLE	60
	Pt	T	Vf	Im	Vu	Pwr	Sig	Ach	Temp	IERange	Over
	#	s	V	A	V	W	V	V	deg C	#	bits
	0	0.013333	6.24355E-001	5.99232E-003	0.00000E+000	3.74134E-003	3.59960E-001	-1.12114E+000	3.57690E+000	10	...........
	1	0.026667	6.33066E-001	5.99456E-003	0.00000E+000	3.79495E-003	3.59960E-001	-1.12726E+000	3.57690E+000	10	...........
	2	0.04	6.41095E-001	6.00018E-003	0.00000E+000	3.84668E-003	3.59960E-001	-1.12890E+000	3.57690E+000	10	...........
	3	0.053333	6.48677E-001	5.99514E-003	0.00000E+000	3.88891E-003	3.59960E-001	-1.12090E+000	3.57690E+000	10	...........
	4	0.066667	6.56002E-001	6.00060E-003	0.00000E+000	3.93641E-003	3.59960E-001	-1.12730E+000	3.57690E+000	10	...........
	5	0.08	6.63142E-001	5.99757E-003	0.00000E+000	3.97724E-003	3.59960E-001	-1.12885E+000	3.57690E+000	10	...........
	6	0.093333	6.70207E-001	5.99726E-003	0.00000E+000	4.01941E-003	3.59960E-001	-1.12077E+000	3.57690E+000	10	...........
	7	0.106667	6.77087E-001	5.99454E-003	0.00000E+000	4.05883E-003	3.59960E-001	-1.12676E+000	3.57690E+000	10	...........
	8	0.12	6.83871E-001	5.99497E-003	0.00000E+000	4.09979E-003	3.59960E-001	-1.12874E+000	3.57690E+000	10	...........
	9	0.133333	6.90620E-001	5.99681E-003	0.00000E+000	4.14151E-003	3.59960E-001	-1.12081E+000	3.57690E+000	10	...........
	10	0.146667	6.97288E-001	5.99660E-003	0.00000E+000	4.18136E-003	3.59960E-001	-1.12682E+000	3.57690E+000	10	...........
	11	0.16	7.03902E-001	5.99044E-003	0.00000E+000	4.21668E-003	3.59960E-001	-1.12886E+000	3.57690E+000	10	...........
	12	0.173333	7.10512E-001	5.99554E-003	0.00000E+000	4.25991E-003	3.59960E-001	-1.12057E+000	3.57690E+000	10	...........
	13	0.186667	7.17063E-001	5.99456E-003	0.00000E+000	4.29848E-003	3.59960E-001	-1.12654E+000	3.57690E+000	10	...........
	14	0.2	7.23637E-001	5.99409E-003	0.00000E+000	4.33755E-003	3.59960E-001	-1.12917E+000	3.57690E+000	10	...........
	15	0.213333	7.30107E-001	5.99557E-003	0.00000E+000	4.37741E-003	3.59960E-001	-1.12089E+000	3.57690E+000	10	...........
	16	0.226667	7.36570E-001	5.99851E-003	0.00000E+000	4.41832E-003	3.59960E-001	-1.12678E+000	3.57690E+000	10	...........
	17	0.24	7.43035E-001	5.98837E-003	0.00000E+000	4.44957E-003	3.59960E-001	-1.12907E+000	3.57690E+000	10	...........
	18	0.253333	7.49473E-001	5.99318E-003	0.00000E+000	4.49172E-003	3.59960E-001	-1.12075E+000	3.57690E+000	10	...........
	19	0.266667	7.55914E-001	5.99300E-003	0.00000E+000	4.53019E-003	3.59960E-001	-1.12696E+000	3.57690E+000	10	...........
	20	0.28	7.62325E-001	5.99559E-003	0.00000E+000	4.57058E-003	3.59960E-001	-1.12945E+000	3.57690E+000	10	...........
	21	0.293333	7.68707E-001	5.99605E-003	0.00000E+000	4.60921E-003	3.59960E-001	-1.12101E+000	3.57690E+000	10	...........
	22	0.306667	7.75055E-001	5.99567E-003	0.00000E+000	4.64697E-003	3.59960E-001	-1.12662E+000	3.57690E+000	10	...........
	23	0.32	7.81466E-001	5.99128E-003	0.00000E+000	4.68198E-003	3.59960E-001	-1.12933E+000	3.57690E+000	10	...........
	24	0.333333	7.87793E-001	5.99398E-003	0.00000E+000	4.72202E-003	3.59960E-001	-1.12107E+000	3.57690E+000	10	...........
	25	0.346667	7.94140E-001	5.99486E-003	0.00000E+000	4.76076E-003	3.59960E-001	-1.12684E+000	3.57690E+000	10	...........
	26	0.36	8.00499E-001	5.99307E-003	0.00000E+000	4.79745E-003	3.59960E-001	-1.12928E+000	3.57690E+000	10	...........
	27	0.373333	8.06803E-001	6.00150E-003	0.00000E+000	4.84203E-003	3.59960E-001	-1.12084E+000	3.57690E+000	10	...........
	28	0.386667	8.13064E-001	5.99092E-003	0.00000E+000	4.87100E-003	3.59960E-001	-1.12633E+000	3.57690E+000	10	...........
	29	0.4	8.19340E-001	5.99799E-003	0.00000E+000	4.91440E-003	3.59960E-001	-1.12896E+000	3.57690E+000	10	...........
	30	0.413333	8.25611E-001	5.99320E-003	0.00000E+000	4.94805E-003	3.59960E-001	-1.12036E+000	3.57690E+000	10	...........
	31	0.426667	8.31837E-001	5.99442E-003	0.00000E+000	4.98638E-003	3.59960E-001	-1.12584E+000	3.57690E+000	10	...........
	32	0.44	8.38099E-001	5.99260E-003	0.00000E+000	5.02239E-003	3.59960E-001	-1.12844E+000	3.57690E+000	10	...........
	33	0.453333	8.44385E-001	5.99568E-003	0.00000E+000	5.06266E-003	3.59960E-001	-1.12008E+000	3.57690E+000	10	...........
	34	0.466667	8.50592E-001	5.99868E-003	0.00000E+000	5.10244E-003	3.59960E-001	-1.12583E+000	3.57690E+000	10	...........
	35	0.48	8.56776E-001	5.99124E-003	0.00000E+000	5.13315E-003	3.59960E-001	-1.12852E+000	3.57690E+000	10	...........
	36	0.493333	8.62972E-001	5.99487E-003	0.00000E+000	5.17340E-003	3.59960E-001	-1.11996E+000	3.57690E+000	10	...........
	37	0.506667	8.69139E-001	5.99250E-003	0.00000E+000	5.20832E-003	3.59960E-001	-1.12508E+000	3.57690E+000	10	...........
	38	0.52	8.75322E-001	5.99657E-003	0.00000E+000	5.24892E-003	3.59960E-001	-1.12823E+000	3.57690E+000	10	...........
	39	0.533333	8.81474E-001	5.99319E-003	0.00000E+000	5.28284E-003	3.59960E-001	-1.11982E+000	3.57690E+000	10	...........
	40	0.546667	8.87575E-001	5.99273E-003	0.00000E+000	5.31899E-003	3.59960E-001	-1.12505E+000	3.57690E+000	10	...........
	41	0.56	8.93618E-001	5.99323E-003	0.00000E+000	5.35566E-003	3.59960E-001	-1.12825E+000	3.57690E+000	10	...........
	42	0.573333	8.99717E-001	5.99169E-003	0.00000E+000	5.39083E-003	3.59960E-001	-1.11947E+000	3.57690E+000	10	...........
	43	0.586667	9.05705E-001	5.99580E-003	0.00000E+000	5.43043E-003	3.59960E-001	-1.12486E+000	3.57690E+000	10	...........
	44	0.6	9.11764E-001	5.99694E-003	0.00000E+000	5.46779E-003	3.59960E-001	-1.12822E+000	3.57690E+000	10	...........
	45	0.613333	9.17736E-001	5.99377E-003	0.00000E+000	5.50070E-003	3.59960E-001	-1.11973E+000	3.57690E+000	10	...........
	46	0.626667	9.23753E-001	5.99858E-003	0.00000E+000	5.54121E-003	3.59960E-001	-1.12513E+000	3.57690E+000	10	...........
	47	0.64	9.29634E-001	5.99534E-003	0.00000E+000	5.57347E-003	3.59960E-001	-1.12810E+000	3.57690E+000	10	...........
	48	0.653333	9.35500E-001	5.99349E-003	0.00000E+000	5.60691E-003	3.59960E-001	-1.11968E+000	3.57690E+000	10	...........
	49	0.666667	9.41327E-001	5.99379E-003	0.00000E+000	5.64212E-003	3.59960E-001	-1.12499E+000	3.57690E+000	10	...........
	50	0.68	9.47187E-001	5.99302E-003	0.00000E+000	5.67651E-003	3.59960E-001	-1.12824E+000	3.57690E+000	10	...........
	51	0.693333	9.52949E-001	5.99231E-003	0.00000E+000	5.71037E-003	3.59960E-001	-1.11979E+000	3.57690E+000	10	...........
	52	0.706667	9.58694E-001	5.99318E-003	0.00000E+000	5.74562E-003	3.59960E-001	-1.12483E+000	3.57690E+000	10	...........
	53	0.72	9.64358E-001	5.99453E-003	0.00000E+000	5.78088E-003	3.59960E-001	-1.12789E+000	3.57690E+000	10	...........
	54	0.733333	9.69995E-001	5.99252E-003	0.00000E+000	5.81272E-003	3.59960E-001	-1.11939E+000	3.57690E+000	10	...........
	55	0.746667	9.75687E-001	5.99178E-003	0.00000E+000	5.84610E-003	3.59960E-001	-1.12458E+000	3.57690E+000	10	...........
	56	0.76	9.81272E-001	5.99396E-003	0.00000E+000	5.88170E-003	3.59960E-001	-1.12808E+000	3.57690E+000	10	...........
	57	0.773333	9.86858E-001	5.99435E-003	0.00000E+000	5.91558E-003	3.59960E-001	-1.11940E+000	3.57690E+000	10	...........
	58	0.786667	9.92309E-001	5.99588E-003	0.00000E+000	5.94976E-003	3.59960E-001	-1.12427E+000	3.57690E+000	10	...........
	59	0.8	9.97738E-001	5.99923E-003	0.00000E+000	5.98566E-003	3.59960E-001	-1.12801E+000	3.57690E+000	10	...........
STARTTIMEOFFSET	QUANT	680.4017	Start Time Offset (s)

File: CHARGE_#387.DTA
EXPLAIN
TAG	PWR800_CHARGE
TITLE	LABEL	PWR Cyclic Charge Discharge (Cell) - Charge Step	Test &Identifier
DATE	LABEL	22-6-2017	Date
TIME	LABEL	15:51:27	Time
NOTES	NOTES	3	&Notes...
	supercap test cell
	0.6mg
	6M KOH
PSTAT	PSTAT	IFC5000-01520	Potentiostat
CAPACITY	QUANT	1.00000E-003	Capacity (A-hr)
CELLTYPE	SELECTOR	1	&Cell Type
WORKINGCONNECTION	SELECTOR	0	&Working Lead
MAXCHARGETIME	VARIABLEANDUNITS	1.00000E+002	s	1.00000E+002	second(s)	Max &Charge Time
CHARGECURRENT	QUANT	6.00000E-003	&Charge Current (A)
VOLTAGEFINISH	TWOPARAM	F	1.00000E-003	3.60000E+003	&Voltage Finish	 I (A) < 	Max Time(s)
SAMPLETIME	QUANT	1.00000E-002	Sa&mple Period (s)
CHARGESTOPAT1	MULTIPARAM	4	1.00000E+000	Charge Stop At &1	Voltage > Limit	V
CHARGESTOPAT2	MULTIPARAM	0	0.00000E+000	Charge Stop At &2	None	N/A
AESBHCSELECTOR	TOGGLE	F	Save Both Half Cells
IRCOMP	TOGGLE	F	IR &Measure
EOC	QUANT	0	Open Circuit (V)
SEQUENCER	TOGGLE	TRUE	Run as Sequence
PSTATMODEL	IQUANT	53	Pstat Model
PSTATSECTION	LABEL	IFC5000-01520	Pstat Section
PSTATSERIALNO	LABEL	01520	Pstat Serial Number
CTRLMODE	IQUANT	0	Control Mode
ELECTROMETER	IQUANT	1	RE=0 or CS=1
IESTAB	IQUANT	0	I/E Stability
CASPEED	IQUANT	4	Control Amp Speed
CONVENTION	IQUANT	1	Current Convention
ICHRANGE	IQUANT	2	Ich Range
ICHRANGEMODE	TOGGLE	T	Ich Auto Range
ICHOFFSETENABLE	TOGGLE	F	Ich Offset Enable
ICHOFFSET	QUANT	0	Ich Offset (V)
ICHFILTER	IQUANT	1	Ich Filter
VCHRANGE	IQUANT	2	Vch Range
VCHRANGEMODE	TOGGLE	T	Vch Auto Range
VCHOFFSETENABLE	TOGGLE	F	Vch Offset Enable
VCHOFFSET	QUANT	0	Vch Offset (V)
VCHFILTER	IQUANT	1	Vch Filter
IERANGELOWERLIMIT	IQUANT	9	I/E Range Lower Limit
IERANGEMODE	TOGGLE	F	I/E AutoRange
IERANGE	IQUANT	10	I/E Range
ACHSELECT	IQUANT	1	Ach Select
ACHRANGE	IQUANT	2	Ach Range
ACHOFFSETENABLE	TOGGLE	F	Ach Offset Enable
ACHOFFSET	QUANT	0	Ach Offset (V)
ACHFILTER	IQUANT	1	Ach Filter
CABLEID	IQUANT	14	Cable ID
DCCALDATE	LABEL	20-10-2016	DC Calibration Date
ACCALDATE	LABEL	12/3/2015	AC Calibration Date
FRAMEWORKVERSION	QUANT	7.01	Framework Version
INSTRUMENTVERSION	LABEL	4.00	Instrument Version
CURVE	TABLE	60
	Pt	T	Vf	Im	Vu	Pwr	Sig	Ach	Temp	IERange	Over
	#	s	V	A	V	W	V	V	deg C	#	bits
	0	0.013333	6.24240E-001	5.99379E-003	0.00000E+000	3.74156E-003	3.59960E-001	-1.12753E+000	3.57790E+000	10	...........
	1	0.026667	6.32972E-001	5.99457E-003	0.00000E+000	3.79440E-003	3.59960E-001	-1.11964E+000	3.57790E+000	10	...........
	2	0.04	6.41041E-001	5.99070E-003	0.00000E+000	3.84029E-003	3.59960E-001	-1.12529E+000	3.57790E+000	10	...........
	3	0.053333	6.48629E-001	5.99083E-003	0.00000E+000	3.88583E-003	3.59960E-001	-1.12742E+000	3.57790E+000	10	...........
	4	0.066667	6.56021E-001	5.99756E-003	0.00000E+000	3.93452E-003	3.59960E-001	-1.11900E+000	3.57790E+000	10	...........
	5	0.08	6.63159E-001	5.99769E-003	0.00000E+000	3.97743E-003	3.59960E-001	-1.12473E+000	3.57790E+000	10	...........
	6	0.093333	6.70251E-001	5.99463E-003	0.00000E+000	4.01790E-003	3.59960E-001	-1.12726E+000	3.57790E+000	10	...........
	7	0.106667	6.77102E-001	5.99044E-003	0.00000E+000	4.05614E-003	3.59960E-001	-1.11897E+000	3.57790E+000	10	...........
	8	0.12	6.83907E-001	5.99449E-003	0.00000E+000	4.09967E-003	3.59960E-001	-1.12473E+000	3.57790E+000	10	...........
	9	0.133333	6.90647E-001	5.99384E-003	0.00000E+000	4.13963E-003	3.59960E-001	-1.12669E+000	3.57790E+000	10	...........
	10	0.146667	6.97322E-001	5.99344E-003	0.00000E+000	4.17936E-003	3.59960E-001	-1.11862E+000	3.57790E+000	10	...........
	11	0.16	7.03932E-001	5.99187E-003	0.00000E+000	4.21787E-003	3.59960E-001	-1.12479E+000	3.57790E+000	10	...........
	12	0.173333	7.10518E-001	5.99417E-003	0.00000E+000	4.25896E-003	3.59960E-001	-1.12694E+000	3.57790E+000	10	...........
	13	0.186667	7.17099E-001	5.99503E-003	0.00000E+000	4.29903E-003	3.59960E-001	-1.11877E+000	3.57790E+000	10	...........
	14	0.2	7.23649E-001	5.99421E-003	0.00000E+000	4.33771E-003	3.59960E-001	-1.12449E+000	3.57790E+000	10	...........
	15	0.213333	7.30079E-001	5.99614E-003	0.00000E+000	4.37766E-003	3.59960E-001	-1.12677E+000	3.57790E+000	10	...........
	16	0.226667	7.36578E-001	5.99262E-003	0.00000E+000	4.41403E-003	3.59960E-001	-1.11868E+000	3.57790E+000	10	...........
	17	0.24	7.43011E-001	5.99537E-003	0.00000E+000	4.45463E-003	3.59960E-001	-1.12471E+000	3.57790E+000	10	...........
	18	0.253333	7.49435E-001	5.99188E-003	0.00000E+000	4.49053E-003	3.59960E-001	-1.12645E+000	3.57790E+000	10	...........
	19	0.266667	7.55870E-001	5.98990E-003	0.00000E+000	4.52759E-003	3.59960E-001	-1.11801E+000	3.57790E+000	10	...........
	20	0.28	7.62249E-001	5.99421E-003	0.00000E+000	4.56908E-003	3.59960E-001	-1.12409E+000	3.57790E+000	10	...........
	21	0.293333	7.68652E-001	5.99440E-003	0.00000E+000	4.60761E-003	3.59960E-001	-1.12640E+000	3.57790E+000	10	...........
	22	0.306667	7.75060E-001	5.99601E-003	0.00000E+000	4.64727E-003	3.59960E-001	-1.11841E+000	3.57790E+000	10	...........
	23	0.32	7.81427E-001	5.99289E-003	0.00000E+000	4.68301E-003	3.59960E-001	-1.12411E+000	3.57790E+000	10	...........
	24	0.333333	7.87774E-001	5.99327E-003	0.00000E+000	4.72134E-003	3.59960E-001	-1.12632E+000	3.57790E+000	10	...........
	25	0.346667	7.94149E-001	5.99528E-003	0.00000E+000	4.76115E-003	3.59960E-001	-1.11825E+000	3.57790E+000	10	...........
	26	0.36	8.00465E-001	5.99479E-003	0.00000E+000	4.79862E-003	3.59960E-001	-1.12435E+000	3.57790E+000	10	...........
	27	0.373333	8.06773E-001	5.99060E-003	0.00000E+000	4.83305E-003	3.59960E-001	-1.12661E+000	3.57790E+000	10	...........
	28	0.386667	8.13096E-001	5.99548E-003	0.00000E+000	4.87490E-003	3.59960E-001	-1.11838E+000	3.57790E+000	10	...........
	29	0.4	8.19367E-001	5.99150E-003	0.00000E+000	4.90924E-003	3.59960E-001	-1.12414E+000	3.57790E+000	10	...........
	30	0.413333	8.25638E-001	5.99686E-003	0.00000E+000	4.95124E-003	3.59960E-001	-1.12646E+000	3.57790E+000	10	...........
	31	0.426667	8.31869E-001	5.99328E-003	0.00000E+000	4.98563E-003	3.59960E-001	-1.11843E+000	3.57790E+000	10	...........
	32	0.44	8.38128E-001	5.99620E-003	0.00000E+000	5.02558E-003	3.59960E-001	-1.12438E+000	3.57790E+000	10	...........
	33	0.453333	8.44376E-001	5.99316E-003	0.00000E+000	5.06048E-003	3.59960E-001	-1.12656E+000	3.57790E+000	10	...........
	34	0.466667	8.50613E-001	5.99594E-003	0.00000E+000	5.10022E-003	3.59960E-001	-1.11827E+000	3.57790E+000	10	...........
	35	0.48	8.56815E-001	5.99233E-003	0.00000E+000	5.13432E-003	3.59960E-001	-1.12448E+000	3.57790E+000	10	...........
	36	0.493333	8.63027E-001	5.99584E-003	0.00000E+000	5.17457E-003	3.59960E-001	-1.12675E+000	3.57790E+000	10	...........
	37	0.506667	8.69186E-001	5.99006E-003	0.00000E+000	5.20647E-003	3.59960E-001	-1.11861E+000	3.57790E+000	10	...........
	38	0.52	8.75374E-001	5.99488E-003	0.00000E+000	5.24776E-003	3.59960E-001	-1.12459E+000	3.57790E+000	10	...........
	39	0.533333	8.81516E-001	5.99321E-003	0.00000E+000	5.28311E-003	3.59960E-001	-1.12664E+000	3.57753E+000	10	...........
	40	0.546667	8.87629E-001	5.98972E-003	0.00000E+000	5.31665E-003	3.59960E-001	-1.11862E+000	3.57690E+000	10	...........
	41	0.56	8.93713E-001	5.99687E-003	0.00000E+000	5.35948E-003	3.59960E-001	-1.12459E+000	3.57690E+000	10	...........
	42	0.573333	8.99788E-001	5.99375E-003	0.00000E+000	5.39311E-003	3.59960E-001	-1.12650E+000	3.57690E+000	10	...........
	43	0.586667	9.05802E-001	5.99524E-003	0.00000E+000	5.43050E-003	3.59960E-001	-1.11813E+000	3.57690E+000	10	...........
	44	0.6	9.11839E-001	5.99288E-003	0.00000E+000	5.46454E-003	3.59960E-001	-1.12404E+000	3.57690E+000	10	...........
	45	0.613333	9.17784E-001	5.99575E-003	0.00000E+000	5.50280E-003	3.59960E-001	-1.12643E+000	3.57690E+000	10	...........
	46	0.626667	9.23801E-001	5.99361E-003	0.00000E+000	5.53691E-003	3.59960E-001	-1.11831E+000	3.57690E+000	10	...........
	47	0.64	9.29724E-001	5.99510E-003	0.00000E+000	5.57379E-003	3.59960E-001	-1.12445E+000	3.57690E+000	10	...........
	48	0.653333	9.35596E-001	5.99647E-003	0.00000E+000	5.61028E-003	3.59960E-001	-1.12656E+000	3.57690E+000	10	...........
	49	0.666667	9.41411E-001	5.99262E-003	0.00000E+000	5.64152E-003	3.59960E-001	-1.11809E+000	3.57690E+000	10	...........
	50	0.68	9.47251E-001	5.99284E-003	0.00000E+000	5.67672E-003	3.59960E-001	-1.12442E+000	3.57690E+000	10	...........
	51	0.693333	9.53042E-001	5.99565E-003	0.00000E+000	5.71410E-003	3.59960E-001	-1.12682E+000	3.57690E+000	10	...........
	52	0.706667	9.58729E-001	5.99404E-003	0.00000E+000	5.74666E-003	3.59960E-001	-1.11848E+000	3.57690E+000	10	...........
	53	0.72	9.64427E-001	5.99290E-003	0.00000E+000	5.77972E-003	3.59960E-001	-1.12435E+000	3.57690E+000	10	...........
	54	0.733333	9.70058E-001	5.99168E-003	0.00000E+000	5.81228E-003	3.59960E-001	-1.12634E+000	3.57690E+000	10	...........
	55	0.746667	9.75740E-001	5.99137E-003	0.00000E+000	5.84602E-003	3.59960E-001	-1.11803E+000	3.57690E+000	10	...........
	56	0.76	9.81335E-001	5.99307E-003	0.00000E+000	5.88121E-003	3.59960E-001	-1.12424E+000	3.57690E+000	10	...........
	57	0.773333	9.86825E-001	5.99657E-003	0.00000E+000	5.91756E-003	3.59960E-001	-1.12640E+000	3.57690E+000	10	...........
	58	0.786667	9.92306E-001	5.99184E-003	0.00000E+000	5.94574E-003	3.59960E-001	-1.11817E+000	3.57690E+000	10	...........
	59	0.8	9.97764E-001	5.99575E-003	0.00000E+000	5.98235E-003	3.59960E-001	-1.12414E+000	3.57690E+000	10	...........
STARTTIMEOFFSET	QUANT	681.9933	Start Time Offset (s)