Folder: Tesis/Data/CV_CRGO300517_1/PWRCCD_CRGO300517_1/CHARGE_DISCHARGE (part 98)

File: CHARGE_#195.DTA
EXPLAIN
TAG	PWR800_CHARGE
TITLE	LABEL	PWR Cyclic Charge Discharge (Cell) - Charge Step	Test &Identifier
DATE	LABEL	22-6-2017	Date
TIME	LABEL	15:43:36	Time
NOTES	NOTES	3	&Notes...
	supercap test cell
	0.6mg
	6M KOH
PSTAT	PSTAT	IFC5000-01520	Potentiostat
CAPACITY	QUANT	1.00000E-003	Capacity (A-hr)
CELLTYPE	SELECTOR	1	&Cell Type
WORKINGCONNECTION	SELECTOR	0	&Working Lead
MAXCHARGETIME	VARIABLEANDUNITS	1.00000E+002	s	1.00000E+002	second(s)	Max &Charge Time
CHARGECURRENT	QUANT	6.00000E-003	&Charge Current (A)
VOLTAGEFINISH	TWOPARAM	F	1.00000E-003	3.60000E+003	&Voltage Finish	 I (A) < 	Max Time(s)
SAMPLETIME	QUANT	1.00000E-002	Sa&mple Period (s)
CHARGESTOPAT1	MULTIPARAM	4	1.00000E+000	Charge Stop At &1	Voltage > Limit	V
CHARGESTOPAT2	MULTIPARAM	0	0.00000E+000	Charge Stop At &2	None	N/A
AESBHCSELECTOR	TOGGLE	F	Save Both Half Cells
IRCOMP	TOGGLE	F	IR &Measure
EOC	QUANT	0	Open Circuit (V)
SEQUENCER	TOGGLE	TRUE	Run as Sequence
PSTATMODEL	IQUANT	53	Pstat Model
PSTATSECTION	LABEL	IFC5000-01520	Pstat Section
PSTATSERIALNO	LABEL	01520	Pstat Serial Number
CTRLMODE	IQUANT	0	Control Mode
ELECTROMETER	IQUANT	1	RE=0 or CS=1
IESTAB	IQUANT	0	I/E Stability
CASPEED	IQUANT	4	Control Amp Speed
CONVENTION	IQUANT	1	Current Convention
ICHRANGE	IQUANT	2	Ich Range
ICHRANGEMODE	TOGGLE	T	Ich Auto Range
ICHOFFSETENABLE	TOGGLE	F	Ich Offset Enable
ICHOFFSET	QUANT	0	Ich Offset (V)
ICHFILTER	IQUANT	1	Ich Filter
VCHRANGE	IQUANT	2	Vch Range
VCHRANGEMODE	TOGGLE	T	Vch Auto Range
VCHOFFSETENABLE	TOGGLE	F	Vch Offset Enable
VCHOFFSET	QUANT	0	Vch Offset (V)
VCHFILTER	IQUANT	1	Vch Filter
IERANGELOWERLIMIT	IQUANT	9	I/E Range Lower Limit
IERANGEMODE	TOGGLE	F	I/E AutoRange
IERANGE	IQUANT	10	I/E Range
ACHSELECT	IQUANT	1	Ach Select
ACHRANGE	IQUANT	2	Ach Range
ACHOFFSETENABLE	TOGGLE	F	Ach Offset Enable
ACHOFFSET	QUANT	0	Ach Offset (V)
ACHFILTER	IQUANT	1	Ach Filter
CABLEID	IQUANT	14	Cable ID
DCCALDATE	LABEL	20-10-2016	DC Calibration Date
ACCALDATE	LABEL	12/3/2015	AC Calibration Date
FRAMEWORKVERSION	QUANT	7.01	Framework Version
INSTRUMENTVERSION	LABEL	4.00	Instrument Version
CURVE	TABLE	65
	Pt	T	Vf	Im	Vu	Pwr	Sig	Ach	Temp	IERange	Over
	#	s	V	A	V	W	V	V	deg C	#	bits
	0	0.013333	6.05554E-001	5.99308E-003	0.00000E+000	3.62914E-003	3.59960E-001	-1.08140E+000	3.57690E+000	10	...........
	1	0.026667	6.14053E-001	5.99593E-003	0.00000E+000	3.68182E-003	3.59960E-001	-1.08632E+000	3.57690E+000	10	...........
	2	0.04	6.21817E-001	5.99366E-003	0.00000E+000	3.72696E-003	3.59960E-001	-1.08931E+000	3.57690E+000	10	...........
	3	0.053333	6.29168E-001	5.99404E-003	0.00000E+000	3.77126E-003	3.59960E-001	-1.08139E+000	3.57690E+000	10	...........
	4	0.066667	6.36204E-001	5.99430E-003	0.00000E+000	3.81360E-003	3.59960E-001	-1.08609E+000	3.57690E+000	10	...........
	5	0.08	6.43141E-001	5.99280E-003	0.00000E+000	3.85421E-003	3.59960E-001	-1.08914E+000	3.57690E+000	10	...........
	6	0.093333	6.49925E-001	5.99843E-003	0.00000E+000	3.89853E-003	3.59960E-001	-1.08128E+000	3.57690E+000	10	...........
	7	0.106667	6.56551E-001	5.99368E-003	0.00000E+000	3.93515E-003	3.59960E-001	-1.08570E+000	3.57690E+000	10	...........
	8	0.12	6.63107E-001	5.99259E-003	0.00000E+000	3.97373E-003	3.59960E-001	-1.08923E+000	3.57690E+000	10	...........
	9	0.133333	6.69626E-001	5.98739E-003	0.00000E+000	4.00931E-003	3.59960E-001	-1.08110E+000	3.57690E+000	10	...........
	10	0.146667	6.76047E-001	5.99235E-003	0.00000E+000	4.05111E-003	3.59960E-001	-1.08557E+000	3.57690E+000	10	...........
	11	0.16	6.82423E-001	5.99577E-003	0.00000E+000	4.09165E-003	3.59960E-001	-1.08901E+000	3.57690E+000	10	...........
	12	0.173333	6.88756E-001	5.99254E-003	0.00000E+000	4.12740E-003	3.59960E-001	-1.08079E+000	3.57690E+000	10	...........
	13	0.186667	6.95071E-001	5.99405E-003	0.00000E+000	4.16629E-003	3.59960E-001	-1.08503E+000	3.57690E+000	10	...........
	14	0.2	7.01350E-001	5.99247E-003	0.00000E+000	4.20282E-003	3.59960E-001	-1.08900E+000	3.57690E+000	10	...........
	15	0.213333	7.07590E-001	5.99740E-003	0.00000E+000	4.24370E-003	3.59960E-001	-1.08038E+000	3.57790E+000	10	...........
	16	0.226667	7.13802E-001	5.99503E-003	0.00000E+000	4.27927E-003	3.59960E-001	-1.08418E+000	3.57790E+000	10	...........
	17	0.24	7.20042E-001	5.99629E-003	0.00000E+000	4.31758E-003	3.59960E-001	-1.08839E+000	3.57790E+000	10	...........
	18	0.253333	7.26233E-001	5.99746E-003	0.00000E+000	4.35555E-003	3.59960E-001	-1.07959E+000	3.57790E+000	10	...........
	19	0.266667	7.32406E-001	5.98923E-003	0.00000E+000	4.38655E-003	3.59960E-001	-1.08363E+000	3.57790E+000	10	...........
	20	0.28	7.38579E-001	5.99383E-003	0.00000E+000	4.42692E-003	3.59960E-001	-1.08774E+000	3.57790E+000	10	...........
	21	0.293333	7.44757E-001	5.99590E-003	0.00000E+000	4.46549E-003	3.59960E-001	-1.07839E+000	3.57790E+000	10	...........
	22	0.306667	7.50852E-001	5.99110E-003	0.00000E+000	4.49843E-003	3.59960E-001	-1.08200E+000	3.57790E+000	10	...........
	23	0.32	7.57045E-001	5.99158E-003	0.00000E+000	4.53590E-003	3.59960E-001	-1.08666E+000	3.57790E+000	10	...........
	24	0.333333	7.63133E-001	5.98727E-003	0.00000E+000	4.56908E-003	3.59960E-001	-1.07755E+000	3.57790E+000	10	...........
	25	0.346667	7.69279E-001	5.99013E-003	0.00000E+000	4.60808E-003	3.59960E-001	-1.08084E+000	3.57790E+000	10	...........
	26	0.36	7.75435E-001	5.99679E-003	0.00000E+000	4.65012E-003	3.59960E-001	-1.08551E+000	3.57790E+000	10	...........
	27	0.373333	7.81543E-001	5.99173E-003	0.00000E+000	4.68279E-003	3.59960E-001	-1.07631E+000	3.57790E+000	10	...........
	28	0.386667	7.87618E-001	5.99335E-003	0.00000E+000	4.72047E-003	3.59960E-001	-1.07977E+000	3.57790E+000	10	...........
	29	0.4	7.93760E-001	5.98977E-003	0.00000E+000	4.75444E-003	3.59960E-001	-1.08464E+000	3.57790E+000	10	...........
	30	0.413333	7.99864E-001	5.99241E-003	0.00000E+000	4.79311E-003	3.59960E-001	-1.07518E+000	3.57790E+000	10	...........
	31	0.426667	8.05931E-001	5.99780E-003	0.00000E+000	4.83381E-003	3.59960E-001	-1.07857E+000	3.57790E+000	10	...........
	32	0.44	8.11984E-001	5.99179E-003	0.00000E+000	4.86524E-003	3.59960E-001	-1.08373E+000	3.57790E+000	10	...........
	33	0.453333	8.18027E-001	5.99571E-003	0.00000E+000	4.90465E-003	3.59960E-001	-1.07420E+000	3.57790E+000	10	...........
	34	0.466667	8.24090E-001	5.99148E-003	0.00000E+000	4.93752E-003	3.59960E-001	-1.07770E+000	3.57790E+000	10	...........
	35	0.48	8.30130E-001	5.99854E-003	0.00000E+000	4.97957E-003	3.59960E-001	-1.08310E+000	3.57790E+000	10	...........
	36	0.493333	8.36138E-001	5.99640E-003	0.00000E+000	5.01382E-003	3.59960E-001	-1.07364E+000	3.57790E+000	10	...........
	37	0.506667	8.42169E-001	5.99414E-003	0.00000E+000	5.04808E-003	3.59960E-001	-1.07695E+000	3.57790E+000	10	...........
	38	0.52	8.48198E-001	5.99441E-003	0.00000E+000	5.08444E-003	3.59960E-001	-1.08296E+000	3.57790E+000	10	...........
	39	0.533333	8.54196E-001	5.99037E-003	0.00000E+000	5.11695E-003	3.59960E-001	-1.07351E+000	3.57790E+000	10	...........
	40	0.546667	8.60200E-001	5.99515E-003	0.00000E+000	5.15702E-003	3.59960E-001	-1.07653E+000	3.57790E+000	10	...........
	41	0.56	8.66133E-001	5.99320E-003	0.00000E+000	5.19091E-003	3.59960E-001	-1.08297E+000	3.57790E+000	10	...........
	42	0.573333	8.72150E-001	5.99176E-003	0.00000E+000	5.22571E-003	3.59960E-001	-1.07362E+000	3.57790E+000	10	...........
	43	0.586667	8.78124E-001	5.98989E-003	0.00000E+000	5.25987E-003	3.59960E-001	-1.07695E+000	3.57790E+000	10	...........
	44	0.6	8.84054E-001	5.98971E-003	0.00000E+000	5.29523E-003	3.59960E-001	-1.08364E+000	3.57790E+000	10	...........
	45	0.613333	8.89952E-001	5.99344E-003	0.00000E+000	5.33387E-003	3.59960E-001	-1.07392E+000	3.57790E+000	10	...........
	46	0.626667	8.95870E-001	5.99642E-003	0.00000E+000	5.37202E-003	3.59960E-001	-1.07710E+000	3.57790E+000	10	...........
	47	0.64	9.01745E-001	5.99393E-003	0.00000E+000	5.40499E-003	3.59960E-001	-1.08411E+000	3.57790E+000	10	...........
	48	0.653333	9.07597E-001	5.99277E-003	0.00000E+000	5.43902E-003	3.59960E-001	-1.07483E+000	3.57790E+000	10	...........
	49	0.666667	9.13487E-001	5.99330E-003	0.00000E+000	5.47480E-003	3.59960E-001	-1.07786E+000	3.57790E+000	10	...........
	50	0.68	9.19319E-001	5.99506E-003	0.00000E+000	5.51138E-003	3.59960E-001	-1.08494E+000	3.57790E+000	10	...........
	51	0.693333	9.25143E-001	5.99205E-003	0.00000E+000	5.54350E-003	3.59960E-001	-1.07563E+000	3.57790E+000	10	...........
	52	0.706667	9.30935E-001	5.99433E-003	0.00000E+000	5.58033E-003	3.59960E-001	-1.07853E+000	3.57790E+000	10	...........
	53	0.72	9.36657E-001	5.99206E-003	0.00000E+000	5.61250E-003	3.59960E-001	-1.08624E+000	3.57790E+000	10	...........
	54	0.733333	9.42373E-001	5.99790E-003	0.00000E+000	5.65226E-003	3.59960E-001	-1.07728E+000	3.57790E+000	10	...........
	55	0.746667	9.48080E-001	5.99148E-003	0.00000E+000	5.68040E-003	3.59960E-001	-1.07999E+000	3.57790E+000	10	...........
	56	0.76	9.53761E-001	5.99245E-003	0.00000E+000	5.71536E-003	3.59960E-001	-1.08796E+000	3.57790E+000	10	...........
	57	0.773333	9.59401E-001	5.99093E-003	0.00000E+000	5.74771E-003	3.59960E-001	-1.07893E+000	3.57790E+000	10	...........
	58	0.786667	9.64992E-001	5.99244E-003	0.00000E+000	5.78265E-003	3.59960E-001	-1.08175E+000	3.57790E+000	10	...........
	59	0.8	9.70592E-001	5.98908E-003	0.00000E+000	5.81295E-003	3.59960E-001	-1.08974E+000	3.57790E+000	10	...........
	60	0.813333	9.76154E-001	5.99128E-003	0.00000E+000	5.84841E-003	3.59960E-001	-1.08018E+000	3.57790E+000	10	...........
	61	0.826667	9.81648E-001	5.99374E-003	0.00000E+000	5.88374E-003	3.59960E-001	-1.08270E+000	3.57790E+000	10	...........
	62	0.84	9.87133E-001	5.99868E-003	0.00000E+000	5.92150E-003	3.59960E-001	-1.09089E+000	3.57790E+000	10	...........
	63	0.853333	9.92546E-001	5.99396E-003	0.00000E+000	5.94928E-003	3.59960E-001	-1.08142E+000	3.57790E+000	10	...........
	64	0.866667	9.97923E-001	5.99613E-003	0.00000E+000	5.98368E-003	3.59960E-001	-1.08346E+000	3.57790E+000	10	...........
STARTTIMEOFFSET	QUANT	364.345	Start Time Offset (s)

File: CHARGE_#196.DTA
EXPLAIN
TAG	PWR800_CHARGE
TITLE	LABEL	PWR Cyclic Charge Discharge (Cell) - Charge Step	Test &Identifier
DATE	LABEL	22-6-2017	Date
TIME	LABEL	15:43:38	Time
NOTES	NOTES	3	&Notes...
	supercap test cell
	0.6mg
	6M KOH
PSTAT	PSTAT	IFC5000-01520	Potentiostat
CAPACITY	QUANT	1.00000E-003	Capacity (A-hr)
CELLTYPE	SELECTOR	1	&Cell Type
WORKINGCONNECTION	SELECTOR	0	&Working Lead
MAXCHARGETIME	VARIABLEANDUNITS	1.00000E+002	s	1.00000E+002	second(s)	Max &Charge Time
CHARGECURRENT	QUANT	6.00000E-003	&Charge Current (A)
VOLTAGEFINISH	TWOPARAM	F	1.00000E-003	3.60000E+003	&Voltage Finish	 I (A) < 	Max Time(s)
SAMPLETIME	QUANT	1.00000E-002	Sa&mple Period (s)
CHARGESTOPAT1	MULTIPARAM	4	1.00000E+000	Charge Stop At &1	Voltage > Limit	V
CHARGESTOPAT2	MULTIPARAM	0	0.00000E+000	Charge Stop At &2	None	N/A
AESBHCSELECTOR	TOGGLE	F	Save Both Half Cells
IRCOMP	TOGGLE	F	IR &Measure
EOC	QUANT	0	Open Circuit (V)
SEQUENCER	TOGGLE	TRUE	Run as Sequence
PSTATMODEL	IQUANT	53	Pstat Model
PSTATSECTION	LABEL	IFC5000-01520	Pstat Section
PSTATSERIALNO	LABEL	01520	Pstat Serial Number
CTRLMODE	IQUANT	0	Control Mode
ELECTROMETER	IQUANT	1	RE=0 or CS=1
IESTAB	IQUANT	0	I/E Stability
CASPEED	IQUANT	4	Control Amp Speed
CONVENTION	IQUANT	1	Current Convention
ICHRANGE	IQUANT	2	Ich Range
ICHRANGEMODE	TOGGLE	T	Ich Auto Range
ICHOFFSETENABLE	TOGGLE	F	Ich Offset Enable
ICHOFFSET	QUANT	0	Ich Offset (V)
ICHFILTER	IQUANT	1	Ich Filter
VCHRANGE	IQUANT	2	Vch Range
VCHRANGEMODE	TOGGLE	T	Vch Auto Range
VCHOFFSETENABLE	TOGGLE	F	Vch Offset Enable
VCHOFFSET	QUANT	0	Vch Offset (V)
VCHFILTER	IQUANT	1	Vch Filter
IERANGELOWERLIMIT	IQUANT	9	I/E Range Lower Limit
IERANGEMODE	TOGGLE	F	I/E AutoRange
IERANGE	IQUANT	10	I/E Range
ACHSELECT	IQUANT	1	Ach Select
ACHRANGE	IQUANT	2	Ach Range
ACHOFFSETENABLE	TOGGLE	F	Ach Offset Enable
ACHOFFSET	QUANT	0	Ach Offset (V)
ACHFILTER	IQUANT	1	Ach Filter
CABLEID	IQUANT	14	Cable ID
DCCALDATE	LABEL	20-10-2016	DC Calibration Date
ACCALDATE	LABEL	12/3/2015	AC Calibration Date
FRAMEWORKVERSION	QUANT	7.01	Framework Version
INSTRUMENTVERSION	LABEL	4.00	Instrument Version
CURVE	TABLE	66
	Pt	T	Vf	Im	Vu	Pwr	Sig	Ach	Temp	IERange	Over
	#	s	V	A	V	W	V	V	deg C	#	bits
	0	0.013333	6.04935E-001	5.99287E-003	0.00000E+000	3.62530E-003	3.59960E-001	-1.08661E+000	3.57810E+000	10	...........
	1	0.026667	6.13415E-001	5.99150E-003	0.00000E+000	3.67527E-003	3.59960E-001	-1.09610E+000	3.57810E+000	10	...........
	2	0.04	6.21171E-001	5.99363E-003	0.00000E+000	3.72308E-003	3.59960E-001	-1.08605E+000	3.57810E+000	10	...........
	3	0.053333	6.28520E-001	5.99726E-003	0.00000E+000	3.76940E-003	3.59960E-001	-1.08597E+000	3.57810E+000	10	...........
	4	0.066667	6.35617E-001	6.00162E-003	0.00000E+000	3.81473E-003	3.59960E-001	-1.09596E+000	3.57810E+000	10	...........
	5	0.08	6.42559E-001	5.99394E-003	0.00000E+000	3.85146E-003	3.59960E-001	-1.08600E+000	3.57810E+000	10	...........
	6	0.093333	6.49284E-001	5.99688E-003	0.00000E+000	3.89368E-003	3.59960E-001	-1.08570E+000	3.57810E+000	10	...........
	7	0.106667	6.55909E-001	5.99821E-003	0.00000E+000	3.93428E-003	3.59960E-001	-1.09581E+000	3.57810E+000	10	...........
	8	0.12	6.62475E-001	5.99206E-003	0.00000E+000	3.96959E-003	3.59960E-001	-1.08592E+000	3.57810E+000	10	...........
	9	0.133333	6.69007E-001	5.99706E-003	0.00000E+000	4.01207E-003	3.59960E-001	-1.08565E+000	3.57810E+000	10	...........
	10	0.146667	6.75398E-001	5.99475E-003	0.00000E+000	4.04884E-003	3.59960E-001	-1.09568E+000	3.57810E+000	10	...........
	11	0.16	6.81768E-001	5.99272E-003	0.00000E+000	4.08564E-003	3.59960E-001	-1.08590E+000	3.57810E+000	10	...........
	12	0.173333	6.88075E-001	5.99009E-003	0.00000E+000	4.12163E-003	3.59960E-001	-1.08557E+000	3.57810E+000	10	...........
	13	0.186667	6.94408E-001	5.99045E-003	0.00000E+000	4.15982E-003	3.59960E-001	-1.09549E+000	3.57810E+000	10	...........
	14	0.2	7.00661E-001	5.99354E-003	0.00000E+000	4.19944E-003	3.59960E-001	-1.08580E+000	3.57810E+000	10	...........
	15	0.213333	7.06909E-001	5.99087E-003	0.00000E+000	4.23500E-003	3.59960E-001	-1.08537E+000	3.57810E+000	10	...........
	16	0.226667	7.13135E-001	5.99326E-003	0.00000E+000	4.27401E-003	3.59960E-001	-1.09566E+000	3.57810E+000	10	...........
	17	0.24	7.19388E-001	5.99601E-003	0.00000E+000	4.31346E-003	3.59960E-001	-1.08601E+000	3.57810E+000	10	...........
	18	0.253333	7.25581E-001	5.99859E-003	0.00000E+000	4.35246E-003	3.59960E-001	-1.08528E+000	3.57810E+000	10	...........
	19	0.266667	7.31749E-001	5.99458E-003	0.00000E+000	4.38653E-003	3.59960E-001	-1.09552E+000	3.57810E+000	10	...........
	20	0.28	7.37903E-001	5.99924E-003	0.00000E+000	4.42686E-003	3.59960E-001	-1.08612E+000	3.57810E+000	10	...........
	21	0.293333	7.44058E-001	5.99317E-003	0.00000E+000	4.45926E-003	3.59960E-001	-1.08505E+000	3.57810E+000	10	...........
	22	0.306667	7.50222E-001	5.99565E-003	0.00000E+000	4.49806E-003	3.59960E-001	-1.09547E+000	3.57810E+000	10	...........
	23	0.32	7.56395E-001	5.99453E-003	0.00000E+000	4.53423E-003	3.59960E-001	-1.08607E+000	3.57810E+000	10	...........
	24	0.333333	7.62512E-001	5.99355E-003	0.00000E+000	4.57016E-003	3.59960E-001	-1.08490E+000	3.57810E+000	10	...........
	25	0.346667	7.68631E-001	5.99396E-003	0.00000E+000	4.60714E-003	3.59960E-001	-1.09530E+000	3.57810E+000	10	...........
	26	0.36	7.74729E-001	5.98960E-003	0.00000E+000	4.64032E-003	3.59960E-001	-1.08580E+000	3.57810E+000	10	...........
	27	0.373333	7.80874E-001	5.99535E-003	0.00000E+000	4.68161E-003	3.59960E-001	-1.08451E+000	3.57810E+000	10	...........
	28	0.386667	7.86961E-001	5.99090E-003	0.00000E+000	4.71461E-003	3.59960E-001	-1.09489E+000	3.57810E+000	10	...........
	29	0.4	7.93051E-001	5.99018E-003	0.00000E+000	4.75052E-003	3.59960E-001	-1.08584E+000	3.57810E+000	10	...........
	30	0.413333	7.99146E-001	5.99338E-003	0.00000E+000	4.78959E-003	3.59960E-001	-1.08459E+000	3.57810E+000	10	...........
	31	0.426667	8.05234E-001	5.99617E-003	0.00000E+000	4.82832E-003	3.59960E-001	-1.09524E+000	3.57810E+000	10	...........
	32	0.44	8.11274E-001	5.99384E-003	0.00000E+000	4.86265E-003	3.59960E-001	-1.08601E+000	3.57810E+000	10	...........
	33	0.453333	8.17330E-001	5.99421E-003	0.00000E+000	4.89925E-003	3.59960E-001	-1.08451E+000	3.57810E+000	10	...........
	34	0.466667	8.23404E-001	5.99331E-003	0.00000E+000	4.93491E-003	3.59960E-001	-1.09482E+000	3.57810E+000	10	...........
	35	0.48	8.29430E-001	5.99587E-003	0.00000E+000	4.97315E-003	3.59960E-001	-1.08605E+000	3.57810E+000	10	...........
	36	0.493333	8.35428E-001	5.99261E-003	0.00000E+000	5.00640E-003	3.59960E-001	-1.08441E+000	3.57810E+000	10	...........
	37	0.506667	8.41449E-001	5.99161E-003	0.00000E+000	5.04164E-003	3.59960E-001	-1.09492E+000	3.57810E+000	10	...........
	38	0.52	8.47506E-001	5.99452E-003	0.00000E+000	5.08039E-003	3.59960E-001	-1.08604E+000	3.57810E+000	10	...........
	39	0.533333	8.53502E-001	5.99100E-003	0.00000E+000	5.11333E-003	3.59960E-001	-1.08401E+000	3.57810E+000	10	...........
	40	0.546667	8.59528E-001	5.99248E-003	0.00000E+000	5.15070E-003	3.59960E-001	-1.09490E+000	3.57810E+000	10	...........
	41	0.56	8.65512E-001	5.99454E-003	0.00000E+000	5.18835E-003	3.59960E-001	-1.08663E+000	3.57810E+000	10	...........
	42	0.573333	8.71528E-001	5.99567E-003	0.00000E+000	5.22539E-003	3.59960E-001	-1.08425E+000	3.57810E+000	10	...........
	43	0.586667	8.77477E-001	5.99475E-003	0.00000E+000	5.26026E-003	3.59960E-001	-1.09487E+000	3.57810E+000	10	...........
	44	0.6	8.83385E-001	5.99371E-003	0.00000E+000	5.29475E-003	3.59960E-001	-1.08633E+000	3.57810E+000	10	...........
	45	0.613333	8.89284E-001	5.98970E-003	0.00000E+000	5.32655E-003	3.59960E-001	-1.08452E+000	3.57810E+000	10	...........
	46	0.626667	8.95188E-001	5.99278E-003	0.00000E+000	5.36466E-003	3.59960E-001	-1.09487E+000	3.57810E+000	10	...........
	47	0.64	9.01059E-001	5.99556E-003	0.00000E+000	5.40236E-003	3.59960E-001	-1.08659E+000	3.57810E+000	10	...........
	48	0.653333	9.06938E-001	5.99619E-003	0.00000E+000	5.43818E-003	3.59960E-001	-1.08408E+000	3.57810E+000	10	...........
	49	0.666667	9.12783E-001	5.99720E-003	0.00000E+000	5.47414E-003	3.59960E-001	-1.09419E+000	3.57810E+000	10	...........
	50	0.68	9.18646E-001	5.99730E-003	0.00000E+000	5.50939E-003	3.59960E-001	-1.08632E+000	3.57810E+000	10	...........
	51	0.693333	9.24530E-001	5.99089E-003	0.00000E+000	5.53876E-003	3.59960E-001	-1.08387E+000	3.57814E+000	10	...........
	52	0.706667	9.30298E-001	5.99314E-003	0.00000E+000	5.57541E-003	3.59960E-001	-1.09421E+000	3.57820E+000	10	...........
	53	0.72	9.36074E-001	5.99291E-003	0.00000E+000	5.60980E-003	3.59960E-001	-1.08601E+000	3.57820E+000	10	...........
	54	0.733333	9.41755E-001	5.99091E-003	0.00000E+000	5.64197E-003	3.59960E-001	-1.08347E+000	3.57820E+000	10	...........
	55	0.746667	9.47512E-001	5.99212E-003	0.00000E+000	5.67761E-003	3.59960E-001	-1.09413E+000	3.57820E+000	10	...........
	56	0.76	9.53169E-001	5.99110E-003	0.00000E+000	5.71053E-003	3.59960E-001	-1.08653E+000	3.57820E+000	10	...........
	57	0.773333	9.58772E-001	5.99189E-003	0.00000E+000	5.74486E-003	3.59960E-001	-1.08359E+000	3.57820E+000	10	...........
	58	0.786667	9.64393E-001	5.99512E-003	0.00000E+000	5.78165E-003	3.59960E-001	-1.09388E+000	3.57820E+000	10	...........
	59	0.8	9.69978E-001	5.99529E-003	0.00000E+000	5.81530E-003	3.59960E-001	-1.08611E+000	3.57820E+000	10	...........
	60	0.813333	9.75506E-001	5.99002E-003	0.00000E+000	5.84330E-003	3.59960E-001	-1.08359E+000	3.57820E+000	10	...........
	61	0.826667	9.80997E-001	5.99297E-003	0.00000E+000	5.87908E-003	3.59960E-001	-1.09372E+000	3.57820E+000	10	...........
	62	0.84	9.86483E-001	5.99681E-003	0.00000E+000	5.91575E-003	3.59960E-001	-1.08625E+000	3.57820E+000	10	...........
	63	0.853333	9.91916E-001	5.99324E-003	0.00000E+000	5.94479E-003	3.59960E-001	-1.08326E+000	3.57820E+000	10	...........
	64	0.866667	9.97299E-001	5.99260E-003	0.00000E+000	5.97642E-003	3.59960E-001	-1.09364E+000	3.57820E+000	10	...........
	65	0.868333	1.00031E+000	5.98578E-003	0.00000E+000	5.98766E-003	3.59960E-001	-1.07219E+000	3.57820E+000	10	...........
STARTTIMEOFFSET	QUANT	366.07	Start Time Offset (s)