Folder: Tesis/Data/CV_CRGO300517_1/PWRCCD_CRGO300517_1/CHARGE_DISCHARGE (part 68)

File: CHARGE_#135.DTA
EXPLAIN
TAG	PWR800_CHARGE
TITLE	LABEL	PWR Cyclic Charge Discharge (Cell) - Charge Step	Test &Identifier
DATE	LABEL	22-6-2017	Date
TIME	LABEL	15:41:02	Time
NOTES	NOTES	3	&Notes...
	supercap test cell
	0.6mg
	6M KOH
PSTAT	PSTAT	IFC5000-01520	Potentiostat
CAPACITY	QUANT	1.00000E-003	Capacity (A-hr)
CELLTYPE	SELECTOR	1	&Cell Type
WORKINGCONNECTION	SELECTOR	0	&Working Lead
MAXCHARGETIME	VARIABLEANDUNITS	1.00000E+002	s	1.00000E+002	second(s)	Max &Charge Time
CHARGECURRENT	QUANT	6.00000E-003	&Charge Current (A)
VOLTAGEFINISH	TWOPARAM	F	1.00000E-003	3.60000E+003	&Voltage Finish	 I (A) < 	Max Time(s)
SAMPLETIME	QUANT	1.00000E-002	Sa&mple Period (s)
CHARGESTOPAT1	MULTIPARAM	4	1.00000E+000	Charge Stop At &1	Voltage > Limit	V
CHARGESTOPAT2	MULTIPARAM	0	0.00000E+000	Charge Stop At &2	None	N/A
AESBHCSELECTOR	TOGGLE	F	Save Both Half Cells
IRCOMP	TOGGLE	F	IR &Measure
EOC	QUANT	0	Open Circuit (V)
SEQUENCER	TOGGLE	TRUE	Run as Sequence
PSTATMODEL	IQUANT	53	Pstat Model
PSTATSECTION	LABEL	IFC5000-01520	Pstat Section
PSTATSERIALNO	LABEL	01520	Pstat Serial Number
CTRLMODE	IQUANT	0	Control Mode
ELECTROMETER	IQUANT	1	RE=0 or CS=1
IESTAB	IQUANT	0	I/E Stability
CASPEED	IQUANT	4	Control Amp Speed
CONVENTION	IQUANT	1	Current Convention
ICHRANGE	IQUANT	2	Ich Range
ICHRANGEMODE	TOGGLE	T	Ich Auto Range
ICHOFFSETENABLE	TOGGLE	F	Ich Offset Enable
ICHOFFSET	QUANT	0	Ich Offset (V)
ICHFILTER	IQUANT	1	Ich Filter
VCHRANGE	IQUANT	2	Vch Range
VCHRANGEMODE	TOGGLE	T	Vch Auto Range
VCHOFFSETENABLE	TOGGLE	F	Vch Offset Enable
VCHOFFSET	QUANT	0	Vch Offset (V)
VCHFILTER	IQUANT	1	Vch Filter
IERANGELOWERLIMIT	IQUANT	9	I/E Range Lower Limit
IERANGEMODE	TOGGLE	F	I/E AutoRange
IERANGE	IQUANT	10	I/E Range
ACHSELECT	IQUANT	1	Ach Select
ACHRANGE	IQUANT	2	Ach Range
ACHOFFSETENABLE	TOGGLE	F	Ach Offset Enable
ACHOFFSET	QUANT	0	Ach Offset (V)
ACHFILTER	IQUANT	1	Ach Filter
CABLEID	IQUANT	14	Cable ID
DCCALDATE	LABEL	20-10-2016	DC Calibration Date
ACCALDATE	LABEL	12/3/2015	AC Calibration Date
FRAMEWORKVERSION	QUANT	7.01	Framework Version
INSTRUMENTVERSION	LABEL	4.00	Instrument Version
CURVE	TABLE	68
	Pt	T	Vf	Im	Vu	Pwr	Sig	Ach	Temp	IERange	Over
	#	s	V	A	V	W	V	V	deg C	#	bits
	0	0.013333	5.95454E-001	5.99435E-003	0.00000E+000	3.56937E-003	3.59960E-001	-1.07572E+000	3.57690E+000	10	...........
	1	0.026667	6.03800E-001	5.99795E-003	0.00000E+000	3.62156E-003	3.59960E-001	-1.06681E+000	3.57690E+000	10	...........
	2	0.04	6.11475E-001	5.99199E-003	0.00000E+000	3.66395E-003	3.59960E-001	-1.07096E+000	3.57690E+000	10	...........
	3	0.053333	6.18782E-001	5.99459E-003	0.00000E+000	3.70935E-003	3.59960E-001	-1.07602E+000	3.57690E+000	10	...........
	4	0.066667	6.25726E-001	5.99442E-003	0.00000E+000	3.75086E-003	3.59960E-001	-1.06636E+000	3.57690E+000	10	...........
	5	0.08	6.32499E-001	5.99905E-003	0.00000E+000	3.79439E-003	3.59960E-001	-1.07059E+000	3.57690E+000	10	...........
	6	0.093333	6.39164E-001	5.99707E-003	0.00000E+000	3.83311E-003	3.59960E-001	-1.07599E+000	3.57690E+000	10	...........
	7	0.106667	6.45699E-001	5.99622E-003	0.00000E+000	3.87176E-003	3.59960E-001	-1.06665E+000	3.57690E+000	10	...........
	8	0.12	6.52185E-001	5.99466E-003	0.00000E+000	3.90963E-003	3.59960E-001	-1.07022E+000	3.57690E+000	10	...........
	9	0.133333	6.58564E-001	5.99103E-003	0.00000E+000	3.94547E-003	3.59960E-001	-1.07536E+000	3.57690E+000	10	...........
	10	0.146667	6.64910E-001	5.99500E-003	0.00000E+000	3.98614E-003	3.59960E-001	-1.06600E+000	3.57690E+000	10	...........
	11	0.16	6.71190E-001	5.99155E-003	0.00000E+000	4.02147E-003	3.59960E-001	-1.07017E+000	3.57690E+000	10	...........
	12	0.173333	6.77405E-001	5.99498E-003	0.00000E+000	4.06103E-003	3.59960E-001	-1.07554E+000	3.57690E+000	10	...........
	13	0.186667	6.83596E-001	5.99629E-003	0.00000E+000	4.09904E-003	3.59960E-001	-1.06609E+000	3.57690E+000	10	...........
	14	0.2	6.89772E-001	5.99507E-003	0.00000E+000	4.13523E-003	3.59960E-001	-1.06990E+000	3.57690E+000	10	...........
	15	0.213333	6.95909E-001	5.99401E-003	0.00000E+000	4.17129E-003	3.59960E-001	-1.07536E+000	3.57690E+000	10	...........
	16	0.226667	7.02060E-001	5.99732E-003	0.00000E+000	4.21048E-003	3.59960E-001	-1.06604E+000	3.57690E+000	10	...........
	17	0.24	7.08092E-001	5.99325E-003	0.00000E+000	4.24377E-003	3.59960E-001	-1.06989E+000	3.57690E+000	10	...........
	18	0.253333	7.14192E-001	5.99190E-003	0.00000E+000	4.27937E-003	3.59960E-001	-1.07515E+000	3.57690E+000	10	...........
	19	0.266667	7.20313E-001	5.99253E-003	0.00000E+000	4.31650E-003	3.59960E-001	-1.06582E+000	3.57690E+000	10	...........
	20	0.28	7.26338E-001	5.99171E-003	0.00000E+000	4.35200E-003	3.59960E-001	-1.06958E+000	3.57690E+000	10	...........
	21	0.293333	7.32359E-001	5.99387E-003	0.00000E+000	4.38967E-003	3.59960E-001	-1.07532E+000	3.57710E+000	10	...........
	22	0.306667	7.38407E-001	5.99392E-003	0.00000E+000	4.42595E-003	3.59960E-001	-1.06602E+000	3.57710E+000	10	...........
	23	0.32	7.44468E-001	5.99377E-003	0.00000E+000	4.46217E-003	3.59960E-001	-1.06978E+000	3.57710E+000	10	...........
	24	0.333333	7.50467E-001	5.99202E-003	0.00000E+000	4.49681E-003	3.59960E-001	-1.07519E+000	3.57710E+000	10	...........
	25	0.346667	7.56490E-001	5.99287E-003	0.00000E+000	4.53355E-003	3.59960E-001	-1.06585E+000	3.57710E+000	10	...........
	26	0.36	7.62489E-001	5.99325E-003	0.00000E+000	4.56978E-003	3.59960E-001	-1.06996E+000	3.57710E+000	10	...........
	27	0.373333	7.68501E-001	5.99429E-003	0.00000E+000	4.60662E-003	3.59960E-001	-1.07543E+000	3.57710E+000	10	...........
	28	0.386667	7.74534E-001	5.99695E-003	0.00000E+000	4.64485E-003	3.59960E-001	-1.06592E+000	3.57710E+000	10	...........
	29	0.4	7.80517E-001	5.99444E-003	0.00000E+000	4.67876E-003	3.59960E-001	-1.06951E+000	3.57710E+000	10	...........
	30	0.413333	7.86498E-001	5.99513E-003	0.00000E+000	4.71515E-003	3.59960E-001	-1.07532E+000	3.57710E+000	10	...........
	31	0.426667	7.92499E-001	5.99319E-003	0.00000E+000	4.74959E-003	3.59960E-001	-1.06585E+000	3.57710E+000	10	...........
	32	0.44	7.98506E-001	5.99515E-003	0.00000E+000	4.78716E-003	3.59960E-001	-1.06939E+000	3.57710E+000	10	...........
	33	0.453333	8.04440E-001	5.99077E-003	0.00000E+000	4.81922E-003	3.59960E-001	-1.07490E+000	3.57710E+000	10	...........
	34	0.466667	8.10419E-001	5.99281E-003	0.00000E+000	4.85669E-003	3.59960E-001	-1.06543E+000	3.57710E+000	10	...........
	35	0.48	8.16362E-001	5.99591E-003	0.00000E+000	4.89483E-003	3.59960E-001	-1.06908E+000	3.57710E+000	10	...........
	36	0.493333	8.22292E-001	5.99482E-003	0.00000E+000	4.92950E-003	3.59960E-001	-1.07520E+000	3.57710E+000	10	...........
	37	0.506667	8.28205E-001	5.99296E-003	0.00000E+000	4.96340E-003	3.59960E-001	-1.06551E+000	3.57710E+000	10	...........
	38	0.52	8.34158E-001	5.99327E-003	0.00000E+000	4.99933E-003	3.59960E-001	-1.06929E+000	3.57710E+000	10	...........
	39	0.533333	8.40069E-001	5.99369E-003	0.00000E+000	5.03511E-003	3.59960E-001	-1.07495E+000	3.57710E+000	10	...........
	40	0.546667	8.46060E-001	5.99512E-003	0.00000E+000	5.07223E-003	3.59960E-001	-1.06556E+000	3.57710E+000	10	...........
	41	0.56	8.51976E-001	5.99948E-003	0.00000E+000	5.11141E-003	3.59960E-001	-1.06916E+000	3.57710E+000	10	...........
	42	0.573333	8.57870E-001	5.99304E-003	0.00000E+000	5.14125E-003	3.59960E-001	-1.07510E+000	3.57710E+000	10	...........
	43	0.586667	8.63804E-001	5.99069E-003	0.00000E+000	5.17478E-003	3.59960E-001	-1.06525E+000	3.57710E+000	10	...........
	44	0.6	8.69655E-001	5.99302E-003	0.00000E+000	5.21186E-003	3.59960E-001	-1.06880E+000	3.57710E+000	10	...........
	45	0.613333	8.75575E-001	5.99466E-003	0.00000E+000	5.24877E-003	3.59960E-001	-1.07498E+000	3.57710E+000	10	...........
	46	0.626667	8.81458E-001	5.99268E-003	0.00000E+000	5.28229E-003	3.59960E-001	-1.06541E+000	3.57710E+000	10	...........
	47	0.64	8.87301E-001	5.99375E-003	0.00000E+000	5.31826E-003	3.59960E-001	-1.06886E+000	3.57710E+000	10	...........
	48	0.653333	8.93127E-001	5.99363E-003	0.00000E+000	5.35308E-003	3.59960E-001	-1.07487E+000	3.57710E+000	10	...........
	49	0.666667	8.98982E-001	5.99232E-003	0.00000E+000	5.38699E-003	3.59960E-001	-1.06544E+000	3.57710E+000	10	...........
	50	0.68	9.04783E-001	5.99056E-003	0.00000E+000	5.42015E-003	3.59960E-001	-1.06901E+000	3.57710E+000	10	...........
	51	0.693333	9.10582E-001	5.99591E-003	0.00000E+000	5.45977E-003	3.59960E-001	-1.07516E+000	3.57710E+000	10	...........
	52	0.706667	9.16349E-001	5.99611E-003	0.00000E+000	5.49453E-003	3.59960E-001	-1.06573E+000	3.57710E+000	10	...........
	53	0.72	9.22155E-001	5.99382E-003	0.00000E+000	5.52723E-003	3.59960E-001	-1.06901E+000	3.57710E+000	10	...........
	54	0.733333	9.27886E-001	5.99532E-003	0.00000E+000	5.56298E-003	3.59960E-001	-1.07525E+000	3.57710E+000	10	...........
	55	0.746667	9.33573E-001	6.00076E-003	0.00000E+000	5.60215E-003	3.59960E-001	-1.06528E+000	3.57710E+000	10	...........
	56	0.76	9.39265E-001	5.99382E-003	0.00000E+000	5.62979E-003	3.59960E-001	-1.06860E+000	3.57710E+000	10	...........
	57	0.773333	9.44912E-001	5.99152E-003	0.00000E+000	5.66146E-003	3.59960E-001	-1.07500E+000	3.57710E+000	10	...........
	58	0.786667	9.50592E-001	5.98743E-003	0.00000E+000	5.69160E-003	3.59960E-001	-1.06502E+000	3.57710E+000	10	...........
	59	0.8	9.56183E-001	5.99615E-003	0.00000E+000	5.73341E-003	3.59960E-001	-1.06842E+000	3.57710E+000	10	...........
	60	0.813333	9.61746E-001	5.99599E-003	0.00000E+000	5.76662E-003	3.59960E-001	-1.07474E+000	3.57710E+000	10	...........
	61	0.826667	9.67309E-001	5.99425E-003	0.00000E+000	5.79829E-003	3.59960E-001	-1.06513E+000	3.57710E+000	10	...........
	62	0.84	9.72853E-001	5.99274E-003	0.00000E+000	5.83005E-003	3.59960E-001	-1.06841E+000	3.57710E+000	10	...........
	63	0.853333	9.78351E-001	5.99876E-003	0.00000E+000	5.86889E-003	3.59960E-001	-1.07484E+000	3.57710E+000	10	...........
	64	0.866667	9.83790E-001	5.99320E-003	0.00000E+000	5.89605E-003	3.59960E-001	-1.06502E+000	3.57710E+000	10	...........
	65	0.88	9.89222E-001	5.99634E-003	0.00000E+000	5.93171E-003	3.59960E-001	-1.06839E+000	3.57710E+000	10	...........
	66	0.893333	9.94576E-001	5.99363E-003	0.00000E+000	5.96112E-003	3.59960E-001	-1.07491E+000	3.57710E+000	10	...........
	67	0.901667	9.98928E-001	5.99676E-003	0.00000E+000	5.99033E-003	3.59960E-001	-1.05878E+000	3.57710E+000	10	...........
STARTTIMEOFFSET	QUANT	258.8383	Start Time Offset (s)

File: CHARGE_#136.DTA
EXPLAIN
TAG	PWR800_CHARGE
TITLE	LABEL	PWR Cyclic Charge Discharge (Cell) - Charge Step	Test &Identifier
DATE	LABEL	22-6-2017	Date
TIME	LABEL	15:41:05	Time
NOTES	NOTES	3	&Notes...
	supercap test cell
	0.6mg
	6M KOH
PSTAT	PSTAT	IFC5000-01520	Potentiostat
CAPACITY	QUANT	1.00000E-003	Capacity (A-hr)
CELLTYPE	SELECTOR	1	&Cell Type
WORKINGCONNECTION	SELECTOR	0	&Working Lead
MAXCHARGETIME	VARIABLEANDUNITS	1.00000E+002	s	1.00000E+002	second(s)	Max &Charge Time
CHARGECURRENT	QUANT	6.00000E-003	&Charge Current (A)
VOLTAGEFINISH	TWOPARAM	F	1.00000E-003	3.60000E+003	&Voltage Finish	 I (A) < 	Max Time(s)
SAMPLETIME	QUANT	1.00000E-002	Sa&mple Period (s)
CHARGESTOPAT1	MULTIPARAM	4	1.00000E+000	Charge Stop At &1	Voltage > Limit	V
CHARGESTOPAT2	MULTIPARAM	0	0.00000E+000	Charge Stop At &2	None	N/A
AESBHCSELECTOR	TOGGLE	F	Save Both Half Cells
IRCOMP	TOGGLE	F	IR &Measure
EOC	QUANT	0	Open Circuit (V)
SEQUENCER	TOGGLE	TRUE	Run as Sequence
PSTATMODEL	IQUANT	53	Pstat Model
PSTATSECTION	LABEL	IFC5000-01520	Pstat Section
PSTATSERIALNO	LABEL	01520	Pstat Serial Number
CTRLMODE	IQUANT	0	Control Mode
ELECTROMETER	IQUANT	1	RE=0 or CS=1
IESTAB	IQUANT	0	I/E Stability
CASPEED	IQUANT	4	Control Amp Speed
CONVENTION	IQUANT	1	Current Convention
ICHRANGE	IQUANT	2	Ich Range
ICHRANGEMODE	TOGGLE	T	Ich Auto Range
ICHOFFSETENABLE	TOGGLE	F	Ich Offset Enable
ICHOFFSET	QUANT	0	Ich Offset (V)
ICHFILTER	IQUANT	1	Ich Filter
VCHRANGE	IQUANT	2	Vch Range
VCHRANGEMODE	TOGGLE	T	Vch Auto Range
VCHOFFSETENABLE	TOGGLE	F	Vch Offset Enable
VCHOFFSET	QUANT	0	Vch Offset (V)
VCHFILTER	IQUANT	1	Vch Filter
IERANGELOWERLIMIT	IQUANT	9	I/E Range Lower Limit
IERANGEMODE	TOGGLE	F	I/E AutoRange
IERANGE	IQUANT	10	I/E Range
ACHSELECT	IQUANT	1	Ach Select
ACHRANGE	IQUANT	2	Ach Range
ACHOFFSETENABLE	TOGGLE	F	Ach Offset Enable
ACHOFFSET	QUANT	0	Ach Offset (V)
ACHFILTER	IQUANT	1	Ach Filter
CABLEID	IQUANT	14	Cable ID
DCCALDATE	LABEL	20-10-2016	DC Calibration Date
ACCALDATE	LABEL	12/3/2015	AC Calibration Date
FRAMEWORKVERSION	QUANT	7.01	Framework Version
INSTRUMENTVERSION	LABEL	4.00	Instrument Version
CURVE	TABLE	68
	Pt	T	Vf	Im	Vu	Pwr	Sig	Ach	Temp	IERange	Over
	#	s	V	A	V	W	V	V	deg C	#	bits
	0	0.013333	5.96092E-001	5.98899E-003	0.00000E+000	3.56999E-003	3.59960E-001	-1.07597E+000	3.57720E+000	10	...........
	1	0.026667	6.04394E-001	5.99480E-003	0.00000E+000	3.62322E-003	3.59960E-001	-1.07306E+000	3.57720E+000	10	...........
	2	0.04	6.12081E-001	5.99701E-003	0.00000E+000	3.67066E-003	3.59960E-001	-1.06741E+000	3.57720E+000	10	...........
	3	0.053333	6.19361E-001	5.99367E-003	0.00000E+000	3.71224E-003	3.59960E-001	-1.07595E+000	3.57720E+000	10	...........
	4	0.066667	6.26353E-001	5.99486E-003	0.00000E+000	3.75490E-003	3.59960E-001	-1.07315E+000	3.57720E+000	10	...........
	5	0.08	6.33118E-001	5.99212E-003	0.00000E+000	3.79372E-003	3.59960E-001	-1.06746E+000	3.57720E+000	10	...........
	6	0.093333	6.39773E-001	5.99712E-003	0.00000E+000	3.83680E-003	3.59960E-001	-1.07576E+000	3.57720E+000	10	...........
	7	0.106667	6.46322E-001	5.99906E-003	0.00000E+000	3.87732E-003	3.59960E-001	-1.07294E+000	3.57720E+000	10	...........
	8	0.12	6.52742E-001	5.99515E-003	0.00000E+000	3.91328E-003	3.59960E-001	-1.06693E+000	3.57720E+000	10	...........
	9	0.133333	6.59120E-001	5.99350E-003	0.00000E+000	3.95044E-003	3.59960E-001	-1.07533E+000	3.57720E+000	10	...........
	10	0.146667	6.65455E-001	5.99376E-003	0.00000E+000	3.98858E-003	3.59960E-001	-1.07279E+000	3.57720E+000	10	...........
	11	0.16	6.71741E-001	5.99355E-003	0.00000E+000	4.02612E-003	3.59960E-001	-1.06703E+000	3.57720E+000	10	...........
	12	0.173333	6.77975E-001	5.99536E-003	0.00000E+000	4.06470E-003	3.59960E-001	-1.07500E+000	3.57720E+000	10	...........
	13	0.186667	6.84150E-001	5.98885E-003	0.00000E+000	4.09727E-003	3.59960E-001	-1.07259E+000	3.57720E+000	10	...........
	14	0.2	6.90363E-001	5.99346E-003	0.00000E+000	4.13766E-003	3.59960E-001	-1.06708E+000	3.57720E+000	10	...........
	15	0.213333	6.96459E-001	5.99374E-003	0.00000E+000	4.17440E-003	3.59960E-001	-1.07517E+000	3.57720E+000	10	...........
	16	0.226667	7.02593E-001	5.99710E-003	0.00000E+000	4.21352E-003	3.59960E-001	-1.07275E+000	3.57720E+000	10	...........
	17	0.24	7.08704E-001	5.99589E-003	0.00000E+000	4.24931E-003	3.59960E-001	-1.06685E+000	3.57720E+000	10	...........
	18	0.253333	7.14790E-001	5.99465E-003	0.00000E+000	4.28491E-003	3.59960E-001	-1.07508E+000	3.57720E+000	10	...........
	19	0.266667	7.20888E-001	5.99610E-003	0.00000E+000	4.32252E-003	3.59960E-001	-1.07282E+000	3.57720E+000	10	...........
	20	0.28	7.26951E-001	5.99287E-003	0.00000E+000	4.35652E-003	3.59960E-001	-1.06703E+000	3.57720E+000	10	...........
	21	0.293333	7.32953E-001	5.99924E-003	0.00000E+000	4.39716E-003	3.59960E-001	-1.07480E+000	3.57720E+000	10	...........
	22	0.306667	7.39000E-001	5.99390E-003	0.00000E+000	4.42949E-003	3.59960E-001	-1.07231E+000	3.57720E+000	10	...........
	23	0.32	7.45047E-001	5.99295E-003	0.00000E+000	4.46503E-003	3.59960E-001	-1.06659E+000	3.57720E+000	10	...........
	24	0.333333	7.51034E-001	5.99215E-003	0.00000E+000	4.50031E-003	3.59960E-001	-1.07518E+000	3.57720E+000	10	...........
	25	0.346667	7.57085E-001	5.99686E-003	0.00000E+000	4.54013E-003	3.59960E-001	-1.07293E+000	3.57720E+000	10	...........
	26	0.36	7.63058E-001	5.99051E-003	0.00000E+000	4.57110E-003	3.59960E-001	-1.06688E+000	3.57720E+000	10	...........
	27	0.373333	7.69085E-001	5.99592E-003	0.00000E+000	4.61137E-003	3.59960E-001	-1.07476E+000	3.57720E+000	10	...........
	28	0.386667	7.75057E-001	5.99226E-003	0.00000E+000	4.64434E-003	3.59960E-001	-1.07293E+000	3.57720E+000	10	...........
	29	0.4	7.81087E-001	5.98993E-003	0.00000E+000	4.67866E-003	3.59960E-001	-1.06697E+000	3.57720E+000	10	...........
	30	0.413333	7.87062E-001	5.99617E-003	0.00000E+000	4.71935E-003	3.59960E-001	-1.07505E+000	3.57720E+000	10	...........
	31	0.426667	7.93024E-001	5.99711E-003	0.00000E+000	4.75585E-003	3.59960E-001	-1.07263E+000	3.57720E+000	10	...........
	32	0.44	7.99001E-001	5.99576E-003	0.00000E+000	4.79062E-003	3.59960E-001	-1.06632E+000	3.57720E+000	10	...........
	33	0.453333	8.04906E-001	5.99222E-003	0.00000E+000	4.82317E-003	3.59960E-001	-1.07428E+000	3.57720E+000	10	...........
	34	0.466667	8.10900E-001	5.99829E-003	0.00000E+000	4.86401E-003	3.59960E-001	-1.07252E+000	3.57720E+000	10	...........
	35	0.48	8.16844E-001	5.99662E-003	0.00000E+000	4.89830E-003	3.59960E-001	-1.06646E+000	3.57720E+000	10	...........
	36	0.493333	8.22801E-001	5.99602E-003	0.00000E+000	4.93353E-003	3.59960E-001	-1.07424E+000	3.57720E+000	10	...........
	37	0.506667	8.28711E-001	5.99124E-003	0.00000E+000	4.96500E-003	3.59960E-001	-1.07233E+000	3.57720E+000	10	...........
	38	0.52	8.34658E-001	5.99774E-003	0.00000E+000	5.00606E-003	3.59960E-001	-1.06636E+000	3.57720E+000	10	...........
	39	0.533333	8.40628E-001	5.99468E-003	0.00000E+000	5.03929E-003	3.59960E-001	-1.07443E+000	3.57720E+000	10	...........
	40	0.546667	8.46554E-001	5.99208E-003	0.00000E+000	5.07262E-003	3.59960E-001	-1.07243E+000	3.57720E+000	10	...........
	41	0.56	8.52503E-001	5.99645E-003	0.00000E+000	5.11199E-003	3.59960E-001	-1.06643E+000	3.57720E+000	10	...........
	42	0.573333	8.58442E-001	5.99371E-003	0.00000E+000	5.14525E-003	3.59960E-001	-1.07398E+000	3.57720E+000	10	...........
	43	0.586667	8.64346E-001	5.99313E-003	0.00000E+000	5.18014E-003	3.59960E-001	-1.07229E+000	3.57720E+000	10	...........
	44	0.6	8.70285E-001	5.99656E-003	0.00000E+000	5.21871E-003	3.59960E-001	-1.06634E+000	3.57720E+000	10	...........
	45	0.613333	8.76116E-001	5.99245E-003	0.00000E+000	5.25008E-003	3.59960E-001	-1.07421E+000	3.57720E+000	10	...........
	46	0.626667	8.81998E-001	5.99811E-003	0.00000E+000	5.29032E-003	3.59960E-001	-1.07232E+000	3.57720E+000	10	...........
	47	0.64	8.87843E-001	5.99853E-003	0.00000E+000	5.32575E-003	3.59960E-001	-1.06599E+000	3.57720E+000	10	...........
	48	0.653333	8.93692E-001	5.99613E-003	0.00000E+000	5.35869E-003	3.59960E-001	-1.07393E+000	3.57720E+000	10	...........
	49	0.666667	8.99543E-001	5.99603E-003	0.00000E+000	5.39369E-003	3.59960E-001	-1.07265E+000	3.57720E+000	10	...........
	50	0.68	9.05331E-001	5.99283E-003	0.00000E+000	5.42550E-003	3.59960E-001	-1.06646E+000	3.57720E+000	10	...........
	51	0.693333	9.11159E-001	5.99304E-003	0.00000E+000	5.46061E-003	3.59960E-001	-1.07423E+000	3.57720E+000	10	...........
	52	0.706667	9.16863E-001	5.99246E-003	0.00000E+000	5.49426E-003	3.59960E-001	-1.07242E+000	3.57720E+000	10	...........
	53	0.72	9.22688E-001	5.99166E-003	0.00000E+000	5.52844E-003	3.59960E-001	-1.06624E+000	3.57750E+000	10	...........
	54	0.733333	9.28359E-001	5.99445E-003	0.00000E+000	5.56500E-003	3.59960E-001	-1.07405E+000	3.57840E+000	10	...........
	55	0.746667	9.34043E-001	5.99421E-003	0.00000E+000	5.59885E-003	3.59960E-001	-1.07261E+000	3.57840E+000	10	...........
	56	0.76	9.39732E-001	5.99305E-003	0.00000E+000	5.63186E-003	3.59960E-001	-1.06590E+000	3.57840E+000	10	...........
	57	0.773333	9.45419E-001	5.99272E-003	0.00000E+000	5.66563E-003	3.59960E-001	-1.07347E+000	3.57840E+000	10	...........
	58	0.786667	9.51072E-001	5.99228E-003	0.00000E+000	5.69909E-003	3.59960E-001	-1.07213E+000	3.57840E+000	10	...........
	59	0.8	9.56700E-001	5.99696E-003	0.00000E+000	5.73730E-003	3.59960E-001	-1.06578E+000	3.57840E+000	10	...........
	60	0.813333	9.62288E-001	5.99890E-003	0.00000E+000	5.77267E-003	3.59960E-001	-1.07358E+000	3.57840E+000	10	...........
	61	0.826667	9.67823E-001	5.99313E-003	0.00000E+000	5.80030E-003	3.59960E-001	-1.07225E+000	3.57840E+000	10	...........
	62	0.84	9.73392E-001	5.99087E-003	0.00000E+000	5.83146E-003	3.59960E-001	-1.06572E+000	3.57840E+000	10	...........
	63	0.853333	9.78880E-001	5.99328E-003	0.00000E+000	5.86670E-003	3.59960E-001	-1.07344E+000	3.57840E+000	10	...........
	64	0.866667	9.84278E-001	5.99547E-003	0.00000E+000	5.90121E-003	3.59960E-001	-1.07245E+000	3.57840E+000	10	...........
	65	0.88	9.89699E-001	5.99103E-003	0.00000E+000	5.92931E-003	3.59960E-001	-1.06605E+000	3.57840E+000	10	...........
	66	0.893333	9.95088E-001	5.99454E-003	0.00000E+000	5.96510E-003	3.59960E-001	-1.07314E+000	3.57840E+000	10	...........
	67	0.9	9.99096E-001	5.99093E-003	0.00000E+000	5.98552E-003	3.59960E-001	-1.06458E+000	3.57840E+000	10	...........
STARTTIMEOFFSET	QUANT	260.63	Start Time Offset (s)