Folder: Tesis/Data/CV_CRGO300517_1/PWRCCD_CRGO300517_1/CHARGE_DISCHARGE (part 25)

File: CHARGE_#49.DTA
EXPLAIN
TAG	PWR800_CHARGE
TITLE	LABEL	PWR Cyclic Charge Discharge (Cell) - Charge Step	Test &Identifier
DATE	LABEL	22-6-2017	Date
TIME	LABEL	15:37:13	Time
NOTES	NOTES	3	&Notes...
	supercap test cell
	0.6mg
	6M KOH
PSTAT	PSTAT	IFC5000-01520	Potentiostat
CAPACITY	QUANT	1.00000E-003	Capacity (A-hr)
CELLTYPE	SELECTOR	1	&Cell Type
WORKINGCONNECTION	SELECTOR	0	&Working Lead
MAXCHARGETIME	VARIABLEANDUNITS	1.00000E+002	s	1.00000E+002	second(s)	Max &Charge Time
CHARGECURRENT	QUANT	6.00000E-003	&Charge Current (A)
VOLTAGEFINISH	TWOPARAM	F	1.00000E-003	3.60000E+003	&Voltage Finish	 I (A) < 	Max Time(s)
SAMPLETIME	QUANT	1.00000E-002	Sa&mple Period (s)
CHARGESTOPAT1	MULTIPARAM	4	1.00000E+000	Charge Stop At &1	Voltage > Limit	V
CHARGESTOPAT2	MULTIPARAM	0	0.00000E+000	Charge Stop At &2	None	N/A
AESBHCSELECTOR	TOGGLE	F	Save Both Half Cells
IRCOMP	TOGGLE	F	IR &Measure
EOC	QUANT	0	Open Circuit (V)
SEQUENCER	TOGGLE	TRUE	Run as Sequence
PSTATMODEL	IQUANT	53	Pstat Model
PSTATSECTION	LABEL	IFC5000-01520	Pstat Section
PSTATSERIALNO	LABEL	01520	Pstat Serial Number
CTRLMODE	IQUANT	0	Control Mode
ELECTROMETER	IQUANT	1	RE=0 or CS=1
IESTAB	IQUANT	0	I/E Stability
CASPEED	IQUANT	4	Control Amp Speed
CONVENTION	IQUANT	1	Current Convention
ICHRANGE	IQUANT	2	Ich Range
ICHRANGEMODE	TOGGLE	T	Ich Auto Range
ICHOFFSETENABLE	TOGGLE	F	Ich Offset Enable
ICHOFFSET	QUANT	0	Ich Offset (V)
ICHFILTER	IQUANT	1	Ich Filter
VCHRANGE	IQUANT	2	Vch Range
VCHRANGEMODE	TOGGLE	T	Vch Auto Range
VCHOFFSETENABLE	TOGGLE	F	Vch Offset Enable
VCHOFFSET	QUANT	0	Vch Offset (V)
VCHFILTER	IQUANT	1	Vch Filter
IERANGELOWERLIMIT	IQUANT	9	I/E Range Lower Limit
IERANGEMODE	TOGGLE	F	I/E AutoRange
IERANGE	IQUANT	10	I/E Range
ACHSELECT	IQUANT	1	Ach Select
ACHRANGE	IQUANT	2	Ach Range
ACHOFFSETENABLE	TOGGLE	F	Ach Offset Enable
ACHOFFSET	QUANT	0	Ach Offset (V)
ACHFILTER	IQUANT	1	Ach Filter
CABLEID	IQUANT	14	Cable ID
DCCALDATE	LABEL	20-10-2016	DC Calibration Date
ACCALDATE	LABEL	12/3/2015	AC Calibration Date
FRAMEWORKVERSION	QUANT	7.01	Framework Version
INSTRUMENTVERSION	LABEL	4.00	Instrument Version
CURVE	TABLE	74
	Pt	T	Vf	Im	Vu	Pwr	Sig	Ach	Temp	IERange	Over
	#	s	V	A	V	W	V	V	deg C	#	bits
	0	0.013333	5.73513E-001	5.99193E-003	0.00000E+000	3.43645E-003	3.59960E-001	-1.03430E+000	3.57860E+000	10	...........
	1	0.026667	5.81609E-001	5.99834E-003	0.00000E+000	3.48869E-003	3.59960E-001	-1.04186E+000	3.57860E+000	10	...........
	2	0.04	5.89065E-001	5.99524E-003	0.00000E+000	3.53158E-003	3.59960E-001	-1.04220E+000	3.57860E+000	10	...........
	3	0.053333	5.96075E-001	5.99197E-003	0.00000E+000	3.57166E-003	3.59960E-001	-1.03382E+000	3.57860E+000	10	...........
	4	0.066667	6.02821E-001	5.99087E-003	0.00000E+000	3.61142E-003	3.59960E-001	-1.04162E+000	3.57860E+000	10	...........
	5	0.08	6.09392E-001	5.99312E-003	0.00000E+000	3.65216E-003	3.59960E-001	-1.04202E+000	3.57860E+000	10	...........
	6	0.093333	6.15841E-001	5.99842E-003	0.00000E+000	3.69407E-003	3.59960E-001	-1.03386E+000	3.57860E+000	10	...........
	7	0.106667	6.22194E-001	5.99367E-003	0.00000E+000	3.72922E-003	3.59960E-001	-1.04160E+000	3.57860E+000	10	...........
	8	0.12	6.28437E-001	5.99176E-003	0.00000E+000	3.76544E-003	3.59960E-001	-1.04207E+000	3.57860E+000	10	...........
	9	0.133333	6.34586E-001	5.99649E-003	0.00000E+000	3.80529E-003	3.59960E-001	-1.03338E+000	3.57860E+000	10	...........
	10	0.146667	6.40687E-001	5.99394E-003	0.00000E+000	3.84024E-003	3.59960E-001	-1.04159E+000	3.57860E+000	10	...........
	11	0.16	6.46718E-001	5.99259E-003	0.00000E+000	3.87552E-003	3.59960E-001	-1.04193E+000	3.57860E+000	10	...........
	12	0.173333	6.52676E-001	5.99076E-003	0.00000E+000	3.91002E-003	3.59960E-001	-1.03367E+000	3.57860E+000	10	...........
	13	0.186667	6.58654E-001	5.99364E-003	0.00000E+000	3.94773E-003	3.59960E-001	-1.04167E+000	3.57860E+000	10	...........
	14	0.2	6.64603E-001	5.99107E-003	0.00000E+000	3.98168E-003	3.59960E-001	-1.04180E+000	3.57860E+000	10	...........
	15	0.213333	6.70476E-001	5.99260E-003	0.00000E+000	4.01790E-003	3.59960E-001	-1.03345E+000	3.57860E+000	10	...........
	16	0.226667	6.76339E-001	5.99824E-003	0.00000E+000	4.05684E-003	3.59960E-001	-1.04177E+000	3.57860E+000	10	...........
	17	0.24	6.82158E-001	5.99457E-003	0.00000E+000	4.08925E-003	3.59960E-001	-1.04213E+000	3.57860E+000	10	...........
	18	0.253333	6.87980E-001	5.99184E-003	0.00000E+000	4.12227E-003	3.59960E-001	-1.03366E+000	3.57860E+000	10	...........
	19	0.266667	6.93797E-001	5.99233E-003	0.00000E+000	4.15746E-003	3.59960E-001	-1.04181E+000	3.57860E+000	10	...........
	20	0.28	6.99593E-001	5.99237E-003	0.00000E+000	4.19222E-003	3.59960E-001	-1.04188E+000	3.57860E+000	10	...........
	21	0.293333	7.05371E-001	5.99371E-003	0.00000E+000	4.22779E-003	3.59960E-001	-1.03354E+000	3.57860E+000	10	...........
	22	0.306667	7.11157E-001	5.99512E-003	0.00000E+000	4.26347E-003	3.59960E-001	-1.04197E+000	3.57860E+000	10	...........
	23	0.32	7.16933E-001	5.99003E-003	0.00000E+000	4.29445E-003	3.59960E-001	-1.04179E+000	3.57860E+000	10	...........
	24	0.333333	7.22699E-001	5.99360E-003	0.00000E+000	4.33157E-003	3.59960E-001	-1.03346E+000	3.57860E+000	10	...........
	25	0.346667	7.28450E-001	5.98969E-003	0.00000E+000	4.36319E-003	3.59960E-001	-1.04128E+000	3.57860E+000	10	...........
	26	0.36	7.34194E-001	5.99353E-003	0.00000E+000	4.40042E-003	3.59960E-001	-1.04129E+000	3.57860E+000	10	...........
	27	0.373333	7.39944E-001	5.99542E-003	0.00000E+000	4.43627E-003	3.59960E-001	-1.03328E+000	3.57860E+000	10	...........
	28	0.386667	7.45711E-001	5.99500E-003	0.00000E+000	4.47054E-003	3.59960E-001	-1.04168E+000	3.57860E+000	10	...........
	29	0.4	7.51436E-001	5.99183E-003	0.00000E+000	4.50248E-003	3.59960E-001	-1.04119E+000	3.57860E+000	10	...........
	30	0.413333	7.57198E-001	5.99134E-003	0.00000E+000	4.53663E-003	3.59960E-001	-1.03321E+000	3.57860E+000	10	...........
	31	0.426667	7.62948E-001	5.99610E-003	0.00000E+000	4.57471E-003	3.59960E-001	-1.04174E+000	3.57860E+000	10	...........
	32	0.44	7.68716E-001	5.99282E-003	0.00000E+000	4.60678E-003	3.59960E-001	-1.04138E+000	3.57860E+000	10	...........
	33	0.453333	7.74453E-001	5.99220E-003	0.00000E+000	4.64067E-003	3.59960E-001	-1.03332E+000	3.57860E+000	10	...........
	34	0.466667	7.80206E-001	5.99446E-003	0.00000E+000	4.67692E-003	3.59960E-001	-1.04156E+000	3.57845E+000	10	...........
	35	0.48	7.85952E-001	5.99347E-003	0.00000E+000	4.71058E-003	3.59960E-001	-1.04100E+000	3.57800E+000	10	...........
	36	0.493333	7.91687E-001	5.99577E-003	0.00000E+000	4.74678E-003	3.59960E-001	-1.03326E+000	3.57800E+000	10	...........
	37	0.506667	7.97422E-001	5.99256E-003	0.00000E+000	4.77860E-003	3.59960E-001	-1.04167E+000	3.57800E+000	10	...........
	38	0.52	8.03141E-001	5.99498E-003	0.00000E+000	4.81482E-003	3.59960E-001	-1.04112E+000	3.57800E+000	10	...........
	39	0.533333	8.08882E-001	5.99348E-003	0.00000E+000	4.84802E-003	3.59960E-001	-1.03316E+000	3.57800E+000	10	...........
	40	0.546667	8.14614E-001	5.99340E-003	0.00000E+000	4.88230E-003	3.59960E-001	-1.04152E+000	3.57800E+000	10	...........
	41	0.56	8.20345E-001	5.98965E-003	0.00000E+000	4.91358E-003	3.59960E-001	-1.04111E+000	3.57800E+000	10	...........
	42	0.573333	8.26077E-001	5.99416E-003	0.00000E+000	4.95164E-003	3.59960E-001	-1.03346E+000	3.57800E+000	10	...........
	43	0.586667	8.31768E-001	5.99213E-003	0.00000E+000	4.98406E-003	3.59960E-001	-1.04207E+000	3.57800E+000	10	...........
	44	0.6	8.37489E-001	5.99667E-003	0.00000E+000	5.02214E-003	3.59960E-001	-1.04113E+000	3.57800E+000	10	...........
	45	0.613333	8.43192E-001	5.99428E-003	0.00000E+000	5.05433E-003	3.59960E-001	-1.03314E+000	3.57800E+000	10	...........
	46	0.626667	8.48891E-001	5.99416E-003	0.00000E+000	5.08838E-003	3.59960E-001	-1.04166E+000	3.57800E+000	10	...........
	47	0.64	8.54631E-001	5.99240E-003	0.00000E+000	5.12130E-003	3.59960E-001	-1.04102E+000	3.57800E+000	10	...........
	48	0.653333	8.60345E-001	5.99196E-003	0.00000E+000	5.15515E-003	3.59960E-001	-1.03324E+000	3.57800E+000	10	...........
	49	0.666667	8.66009E-001	5.99237E-003	0.00000E+000	5.18945E-003	3.59960E-001	-1.04139E+000	3.57800E+000	10	...........
	50	0.68	8.71733E-001	5.99372E-003	0.00000E+000	5.22492E-003	3.59960E-001	-1.04038E+000	3.57800E+000	10	...........
	51	0.693333	8.77420E-001	5.99274E-003	0.00000E+000	5.25815E-003	3.59960E-001	-1.03289E+000	3.57800E+000	10	...........
	52	0.706667	8.83097E-001	5.99138E-003	0.00000E+000	5.29097E-003	3.59960E-001	-1.04143E+000	3.57800E+000	10	...........
	53	0.72	8.88779E-001	5.99325E-003	0.00000E+000	5.32667E-003	3.59960E-001	-1.04041E+000	3.57800E+000	10	...........
	54	0.733333	8.94435E-001	5.99444E-003	0.00000E+000	5.36163E-003	3.59960E-001	-1.03309E+000	3.57800E+000	10	...........
	55	0.746667	9.00135E-001	5.99675E-003	0.00000E+000	5.39788E-003	3.59960E-001	-1.04126E+000	3.57800E+000	10	...........
	56	0.76	9.05743E-001	5.99253E-003	0.00000E+000	5.42769E-003	3.59960E-001	-1.04042E+000	3.57800E+000	10	...........
	57	0.773333	9.11387E-001	5.99192E-003	0.00000E+000	5.46096E-003	3.59960E-001	-1.03300E+000	3.57800E+000	10	...........
	58	0.786667	9.17008E-001	5.99236E-003	0.00000E+000	5.49505E-003	3.59960E-001	-1.04173E+000	3.57800E+000	10	...........
	59	0.8	9.22643E-001	5.99212E-003	0.00000E+000	5.52859E-003	3.59960E-001	-1.04014E+000	3.57800E+000	10	...........
	60	0.813333	9.28185E-001	5.99373E-003	0.00000E+000	5.56329E-003	3.59960E-001	-1.03261E+000	3.57800E+000	10	...........
	61	0.826667	9.33774E-001	5.99228E-003	0.00000E+000	5.59544E-003	3.59960E-001	-1.04150E+000	3.57800E+000	10	...........
	62	0.84	9.39255E-001	5.99547E-003	0.00000E+000	5.63128E-003	3.59960E-001	-1.04044E+000	3.57800E+000	10	...........
	63	0.853333	9.44770E-001	5.99376E-003	0.00000E+000	5.66272E-003	3.59960E-001	-1.03280E+000	3.57800E+000	10	...........
	64	0.866667	9.50312E-001	6.00050E-003	0.00000E+000	5.70234E-003	3.59960E-001	-1.04155E+000	3.57800E+000	10	...........
	65	0.88	9.55813E-001	5.99718E-003	0.00000E+000	5.73218E-003	3.59960E-001	-1.04026E+000	3.57800E+000	10	...........
	66	0.893333	9.61273E-001	5.99155E-003	0.00000E+000	5.75952E-003	3.59960E-001	-1.03297E+000	3.57800E+000	10	...........
	67	0.906667	9.66709E-001	5.99333E-003	0.00000E+000	5.79381E-003	3.59960E-001	-1.04203E+000	3.57800E+000	10	...........
	68	0.92	9.72159E-001	5.99213E-003	0.00000E+000	5.82530E-003	3.59960E-001	-1.04034E+000	3.57800E+000	10	...........
	69	0.933333	9.77557E-001	5.99443E-003	0.00000E+000	5.85989E-003	3.59960E-001	-1.03295E+000	3.57800E+000	10	...........
	70	0.946667	9.82926E-001	5.99842E-003	0.00000E+000	5.89601E-003	3.59960E-001	-1.04167E+000	3.57800E+000	10	...........
	71	0.96	9.88280E-001	5.99579E-003	0.00000E+000	5.92552E-003	3.59960E-001	-1.04024E+000	3.57800E+000	10	...........
	72	0.97333	9.93582E-001	5.99628E-003	0.00000E+000	5.95780E-003	3.59960E-001	-1.03303E+000	3.57800E+000	10	...........
	73	0.985	9.98522E-001	5.99426E-003	0.00000E+000	5.98540E-003	3.59960E-001	-1.04473E+000	3.57800E+000	10	...........
STARTTIMEOFFSET	QUANT	98.5933	Start Time Offset (s)

File: CHARGE_#50.DTA
EXPLAIN
TAG	PWR800_CHARGE
TITLE	LABEL	PWR Cyclic Charge Discharge (Cell) - Charge Step	Test &Identifier
DATE	LABEL	22-6-2017	Date
TIME	LABEL	15:37:16	Time
NOTES	NOTES	3	&Notes...
	supercap test cell
	0.6mg
	6M KOH
PSTAT	PSTAT	IFC5000-01520	Potentiostat
CAPACITY	QUANT	1.00000E-003	Capacity (A-hr)
CELLTYPE	SELECTOR	1	&Cell Type
WORKINGCONNECTION	SELECTOR	0	&Working Lead
MAXCHARGETIME	VARIABLEANDUNITS	1.00000E+002	s	1.00000E+002	second(s)	Max &Charge Time
CHARGECURRENT	QUANT	6.00000E-003	&Charge Current (A)
VOLTAGEFINISH	TWOPARAM	F	1.00000E-003	3.60000E+003	&Voltage Finish	 I (A) < 	Max Time(s)
SAMPLETIME	QUANT	1.00000E-002	Sa&mple Period (s)
CHARGESTOPAT1	MULTIPARAM	4	1.00000E+000	Charge Stop At &1	Voltage > Limit	V
CHARGESTOPAT2	MULTIPARAM	0	0.00000E+000	Charge Stop At &2	None	N/A
AESBHCSELECTOR	TOGGLE	F	Save Both Half Cells
IRCOMP	TOGGLE	F	IR &Measure
EOC	QUANT	0	Open Circuit (V)
SEQUENCER	TOGGLE	TRUE	Run as Sequence
PSTATMODEL	IQUANT	53	Pstat Model
PSTATSECTION	LABEL	IFC5000-01520	Pstat Section
PSTATSERIALNO	LABEL	01520	Pstat Serial Number
CTRLMODE	IQUANT	0	Control Mode
ELECTROMETER	IQUANT	1	RE=0 or CS=1
IESTAB	IQUANT	0	I/E Stability
CASPEED	IQUANT	4	Control Amp Speed
CONVENTION	IQUANT	1	Current Convention
ICHRANGE	IQUANT	2	Ich Range
ICHRANGEMODE	TOGGLE	T	Ich Auto Range
ICHOFFSETENABLE	TOGGLE	F	Ich Offset Enable
ICHOFFSET	QUANT	0	Ich Offset (V)
ICHFILTER	IQUANT	1	Ich Filter
VCHRANGE	IQUANT	2	Vch Range
VCHRANGEMODE	TOGGLE	T	Vch Auto Range
VCHOFFSETENABLE	TOGGLE	F	Vch Offset Enable
VCHOFFSET	QUANT	0	Vch Offset (V)
VCHFILTER	IQUANT	1	Vch Filter
IERANGELOWERLIMIT	IQUANT	9	I/E Range Lower Limit
IERANGEMODE	TOGGLE	F	I/E AutoRange
IERANGE	IQUANT	10	I/E Range
ACHSELECT	IQUANT	1	Ach Select
ACHRANGE	IQUANT	2	Ach Range
ACHOFFSETENABLE	TOGGLE	F	Ach Offset Enable
ACHOFFSET	QUANT	0	Ach Offset (V)
ACHFILTER	IQUANT	1	Ach Filter
CABLEID	IQUANT	14	Cable ID
DCCALDATE	LABEL	20-10-2016	DC Calibration Date
ACCALDATE	LABEL	12/3/2015	AC Calibration Date
FRAMEWORKVERSION	QUANT	7.01	Framework Version
INSTRUMENTVERSION	LABEL	4.00	Instrument Version
CURVE	TABLE	74
	Pt	T	Vf	Im	Vu	Pwr	Sig	Ach	Temp	IERange	Over
	#	s	V	A	V	W	V	V	deg C	#	bits
	0	0.013333	5.73854E-001	5.99126E-003	0.00000E+000	3.43811E-003	3.59960E-001	-1.04166E+000	3.57830E+000	10	...........
	1	0.026667	5.81964E-001	5.99148E-003	0.00000E+000	3.48683E-003	3.59960E-001	-1.04402E+000	3.57830E+000	10	...........
	2	0.04	5.89431E-001	5.99501E-003	0.00000E+000	3.53365E-003	3.59960E-001	-1.03516E+000	3.57830E+000	10	...........
	3	0.053333	5.96514E-001	5.99321E-003	0.00000E+000	3.57503E-003	3.59960E-001	-1.04198E+000	3.57830E+000	10	...........
	4	0.066667	6.03222E-001	5.99308E-003	0.00000E+000	3.61516E-003	3.59960E-001	-1.04424E+000	3.57830E+000	10	...........
	5	0.08	6.09821E-001	5.99524E-003	0.00000E+000	3.65602E-003	3.59960E-001	-1.03520E+000	3.57830E+000	10	...........
	6	0.093333	6.16340E-001	5.99433E-003	0.00000E+000	3.69455E-003	3.59960E-001	-1.04197E+000	3.57830E+000	10	...........
	7	0.106667	6.22638E-001	5.99563E-003	0.00000E+000	3.73311E-003	3.59960E-001	-1.04437E+000	3.57830E+000	10	...........
	8	0.12	6.28813E-001	5.99266E-003	0.00000E+000	3.76827E-003	3.59960E-001	-1.03522E+000	3.57830E+000	10	...........
	9	0.133333	6.34925E-001	5.99432E-003	0.00000E+000	3.80595E-003	3.59960E-001	-1.04196E+000	3.57830E+000	10	...........
	10	0.146667	6.41031E-001	5.99445E-003	0.00000E+000	3.84263E-003	3.59960E-001	-1.04392E+000	3.57830E+000	10	...........
	11	0.16	6.47081E-001	5.99034E-003	0.00000E+000	3.87623E-003	3.59960E-001	-1.03491E+000	3.57830E+000	10	...........
	12	0.173333	6.53068E-001	5.99331E-003	0.00000E+000	3.91404E-003	3.59960E-001	-1.04174E+000	3.57830E+000	10	...........
	13	0.186667	6.58992E-001	5.99223E-003	0.00000E+000	3.94883E-003	3.59960E-001	-1.04345E+000	3.57830E+000	10	...........
	14	0.2	6.64951E-001	5.99609E-003	0.00000E+000	3.98711E-003	3.59960E-001	-1.03450E+000	3.57830E+000	10	...........
	15	0.213333	6.70905E-001	5.99178E-003	0.00000E+000	4.01991E-003	3.59960E-001	-1.04123E+000	3.57830E+000	10	...........
	16	0.226667	6.76751E-001	5.99454E-003	0.00000E+000	4.05681E-003	3.59960E-001	-1.04337E+000	3.57830E+000	10	...........
	17	0.24	6.82613E-001	5.99320E-003	0.00000E+000	4.09103E-003	3.59960E-001	-1.03453E+000	3.57830E+000	10	...........
	18	0.253333	6.88441E-001	5.99234E-003	0.00000E+000	4.12538E-003	3.59960E-001	-1.04165E+000	3.57830E+000	10	...........
	19	0.266667	6.94295E-001	5.98983E-003	0.00000E+000	4.15871E-003	3.59960E-001	-1.04327E+000	3.57830E+000	10	...........
	20	0.28	7.00106E-001	5.99581E-003	0.00000E+000	4.19770E-003	3.59960E-001	-1.03434E+000	3.57830E+000	10	...........
	21	0.293333	7.05910E-001	5.99587E-003	0.00000E+000	4.23254E-003	3.59960E-001	-1.04137E+000	3.57830E+000	10	...........
	22	0.306667	7.11711E-001	5.99153E-003	0.00000E+000	4.26424E-003	3.59960E-001	-1.04337E+000	3.57830E+000	10	...........
	23	0.32	7.17510E-001	5.99476E-003	0.00000E+000	4.30130E-003	3.59960E-001	-1.03443E+000	3.57830E+000	10	...........
	24	0.333333	7.23288E-001	5.99323E-003	0.00000E+000	4.33483E-003	3.59960E-001	-1.04135E+000	3.57830E+000	10	...........
	25	0.346667	7.29019E-001	5.99091E-003	0.00000E+000	4.36749E-003	3.59960E-001	-1.04320E+000	3.57830E+000	10	...........
	26	0.36	7.34777E-001	5.99186E-003	0.00000E+000	4.40268E-003	3.59960E-001	-1.03433E+000	3.57830E+000	10	...........
	27	0.373333	7.40591E-001	5.99316E-003	0.00000E+000	4.43847E-003	3.59960E-001	-1.04151E+000	3.57830E+000	10	...........
	28	0.386667	7.46335E-001	5.99467E-003	0.00000E+000	4.47403E-003	3.59960E-001	-1.04352E+000	3.57830E+000	10	...........
	29	0.4	7.52085E-001	5.99074E-003	0.00000E+000	4.50554E-003	3.59960E-001	-1.03437E+000	3.57830E+000	10	...........
	30	0.413333	7.57818E-001	5.99709E-003	0.00000E+000	4.54470E-003	3.59960E-001	-1.04136E+000	3.57830E+000	10	...........
	31	0.426667	7.63553E-001	5.99520E-003	0.00000E+000	4.57765E-003	3.59960E-001	-1.04324E+000	3.57830E+000	10	...........
	32	0.44	7.69305E-001	5.99346E-003	0.00000E+000	4.61080E-003	3.59960E-001	-1.03459E+000	3.57830E+000	10	...........
	33	0.453333	7.75066E-001	5.99216E-003	0.00000E+000	4.64432E-003	3.59960E-001	-1.04175E+000	3.57830E+000	10	...........
	34	0.466667	7.80802E-001	5.99377E-003	0.00000E+000	4.67995E-003	3.59960E-001	-1.04314E+000	3.57830E+000	10	...........
	35	0.48	7.86554E-001	5.99380E-003	0.00000E+000	4.71445E-003	3.59960E-001	-1.03423E+000	3.57830E+000	10	...........
	36	0.493333	7.92275E-001	5.99183E-003	0.00000E+000	4.74718E-003	3.59960E-001	-1.04132E+000	3.57830E+000	10	...........
	37	0.506667	7.98026E-001	5.99424E-003	0.00000E+000	4.78356E-003	3.59960E-001	-1.04283E+000	3.57830E+000	10	...........
	38	0.52	8.03760E-001	5.99541E-003	0.00000E+000	4.81887E-003	3.59960E-001	-1.03417E+000	3.57830E+000	10	...........
	39	0.533333	8.09472E-001	5.99420E-003	0.00000E+000	4.85214E-003	3.59960E-001	-1.04119E+000	3.57830E+000	10	...........
	40	0.546667	8.15242E-001	5.99187E-003	0.00000E+000	4.88483E-003	3.59960E-001	-1.04263E+000	3.57830E+000	10	...........
	41	0.56	8.20989E-001	5.99566E-003	0.00000E+000	4.92237E-003	3.59960E-001	-1.03390E+000	3.57830E+000	10	...........
	42	0.573333	8.26710E-001	5.99274E-003	0.00000E+000	4.95426E-003	3.59960E-001	-1.04136E+000	3.57830E+000	10	...........
	43	0.586667	8.32445E-001	5.99448E-003	0.00000E+000	4.99007E-003	3.59960E-001	-1.04278E+000	3.57830E+000	10	...........
	44	0.6	8.38155E-001	5.99380E-003	0.00000E+000	5.02374E-003	3.59960E-001	-1.03389E+000	3.57830E+000	10	...........
	45	0.613333	8.43875E-001	5.99639E-003	0.00000E+000	5.06020E-003	3.59960E-001	-1.04101E+000	3.57830E+000	10	...........
	46	0.626667	8.49598E-001	5.99486E-003	0.00000E+000	5.09322E-003	3.59960E-001	-1.04234E+000	3.57830E+000	10	...........
	47	0.64	8.55273E-001	5.99342E-003	0.00000E+000	5.12601E-003	3.59960E-001	-1.03385E+000	3.57830E+000	10	...........
	48	0.653333	8.60993E-001	5.99174E-003	0.00000E+000	5.15884E-003	3.59960E-001	-1.04115E+000	3.57830E+000	10	...........
	49	0.666667	8.66667E-001	5.99610E-003	0.00000E+000	5.19662E-003	3.59960E-001	-1.04235E+000	3.57830E+000	10	...........
	50	0.68	8.72436E-001	5.99366E-003	0.00000E+000	5.22908E-003	3.59960E-001	-1.03339E+000	3.57830E+000	10	...........
	51	0.693333	8.78140E-001	5.99674E-003	0.00000E+000	5.26598E-003	3.59960E-001	-1.04076E+000	3.57830E+000	10	...........
	52	0.706667	8.83819E-001	5.99616E-003	0.00000E+000	5.29952E-003	3.59960E-001	-1.04272E+000	3.57830E+000	10	...........
	53	0.72	8.89459E-001	5.99687E-003	0.00000E+000	5.33397E-003	3.59960E-001	-1.03389E+000	3.57830E+000	10	...........
	54	0.733333	8.95125E-001	5.99178E-003	0.00000E+000	5.36339E-003	3.59960E-001	-1.04120E+000	3.57841E+000	10	...........
	55	0.746667	9.00761E-001	5.99054E-003	0.00000E+000	5.39604E-003	3.59960E-001	-1.04216E+000	3.57860E+000	10	...........
	56	0.76	9.06439E-001	5.99412E-003	0.00000E+000	5.43330E-003	3.59960E-001	-1.03361E+000	3.57860E+000	10	...........
	57	0.773333	9.12086E-001	5.99152E-003	0.00000E+000	5.46478E-003	3.59960E-001	-1.04109E+000	3.57860E+000	10	...........
	58	0.786667	9.17716E-001	5.99412E-003	0.00000E+000	5.50090E-003	3.59960E-001	-1.04226E+000	3.57860E+000	10	...........
	59	0.8	9.23378E-001	5.99197E-003	0.00000E+000	5.53285E-003	3.59960E-001	-1.03366E+000	3.57860E+000	10	...........
	60	0.813333	9.28948E-001	5.99408E-003	0.00000E+000	5.56819E-003	3.59960E-001	-1.04051E+000	3.57860E+000	10	...........
	61	0.826667	9.34486E-001	5.99438E-003	0.00000E+000	5.60166E-003	3.59960E-001	-1.04190E+000	3.57860E+000	10	...........
	62	0.84	9.40042E-001	5.99487E-003	0.00000E+000	5.63542E-003	3.59960E-001	-1.03340E+000	3.57860E+000	10	...........
	63	0.853333	9.45568E-001	5.99142E-003	0.00000E+000	5.66530E-003	3.59960E-001	-1.04065E+000	3.57860E+000	10	...........
	64	0.866667	9.51112E-001	5.99534E-003	0.00000E+000	5.70224E-003	3.59960E-001	-1.04168E+000	3.57860E+000	10	...........
	65	0.88	9.56605E-001	5.99084E-003	0.00000E+000	5.73087E-003	3.59960E-001	-1.03303E+000	3.57860E+000	10	...........
	66	0.893333	9.62034E-001	5.99440E-003	0.00000E+000	5.76681E-003	3.59960E-001	-1.04063E+000	3.57860E+000	10	...........
	67	0.906667	9.67437E-001	5.99210E-003	0.00000E+000	5.79698E-003	3.59960E-001	-1.04212E+000	3.57860E+000	10	...........
	68	0.92	9.72893E-001	5.99268E-003	0.00000E+000	5.83023E-003	3.59960E-001	-1.03331E+000	3.57860E+000	10	...........
	69	0.933333	9.78290E-001	5.99311E-003	0.00000E+000	5.86300E-003	3.59960E-001	-1.04059E+000	3.57860E+000	10	...........
	70	0.946667	9.83653E-001	5.99155E-003	0.00000E+000	5.89360E-003	3.59960E-001	-1.04161E+000	3.57860E+000	10	...........
	71	0.96	9.88991E-001	5.99529E-003	0.00000E+000	5.92929E-003	3.59960E-001	-1.03320E+000	3.57860E+000	10	...........
	72	0.97333	9.94257E-001	5.99371E-003	0.00000E+000	5.95929E-003	3.59960E-001	-1.04075E+000	3.57860E+000	10	...........
	73	0.98333	9.98870E-001	5.99528E-003	0.00000E+000	5.98851E-003	3.59960E-001	-1.03957E+000	3.57860E+000	10	...........
STARTTIMEOFFSET	QUANT	100.5483	Start Time Offset (s)