Folder: Tesis/Data/CV_CRGO300517_1/PWRCCD_CRGO300517_1/CHARGE_DISCHARGE (part 8)

File: CHARGE_#15.DTA
EXPLAIN
TAG	PWR800_CHARGE
TITLE	LABEL	PWR Cyclic Charge Discharge (Cell) - Charge Step	Test &Identifier
DATE	LABEL	22-6-2017	Date
TIME	LABEL	15:35:37	Time
NOTES	NOTES	3	&Notes...
	supercap test cell
	0.6mg
	6M KOH
PSTAT	PSTAT	IFC5000-01520	Potentiostat
CAPACITY	QUANT	1.00000E-003	Capacity (A-hr)
CELLTYPE	SELECTOR	1	&Cell Type
WORKINGCONNECTION	SELECTOR	0	&Working Lead
MAXCHARGETIME	VARIABLEANDUNITS	1.00000E+002	s	1.00000E+002	second(s)	Max &Charge Time
CHARGECURRENT	QUANT	6.00000E-003	&Charge Current (A)
VOLTAGEFINISH	TWOPARAM	F	1.00000E-003	3.60000E+003	&Voltage Finish	 I (A) < 	Max Time(s)
SAMPLETIME	QUANT	1.00000E-002	Sa&mple Period (s)
CHARGESTOPAT1	MULTIPARAM	4	1.00000E+000	Charge Stop At &1	Voltage > Limit	V
CHARGESTOPAT2	MULTIPARAM	0	0.00000E+000	Charge Stop At &2	None	N/A
AESBHCSELECTOR	TOGGLE	F	Save Both Half Cells
IRCOMP	TOGGLE	F	IR &Measure
EOC	QUANT	0	Open Circuit (V)
SEQUENCER	TOGGLE	TRUE	Run as Sequence
PSTATMODEL	IQUANT	53	Pstat Model
PSTATSECTION	LABEL	IFC5000-01520	Pstat Section
PSTATSERIALNO	LABEL	01520	Pstat Serial Number
CTRLMODE	IQUANT	0	Control Mode
ELECTROMETER	IQUANT	1	RE=0 or CS=1
IESTAB	IQUANT	0	I/E Stability
CASPEED	IQUANT	4	Control Amp Speed
CONVENTION	IQUANT	1	Current Convention
ICHRANGE	IQUANT	2	Ich Range
ICHRANGEMODE	TOGGLE	T	Ich Auto Range
ICHOFFSETENABLE	TOGGLE	F	Ich Offset Enable
ICHOFFSET	QUANT	0	Ich Offset (V)
ICHFILTER	IQUANT	1	Ich Filter
VCHRANGE	IQUANT	2	Vch Range
VCHRANGEMODE	TOGGLE	T	Vch Auto Range
VCHOFFSETENABLE	TOGGLE	F	Vch Offset Enable
VCHOFFSET	QUANT	0	Vch Offset (V)
VCHFILTER	IQUANT	1	Vch Filter
IERANGELOWERLIMIT	IQUANT	9	I/E Range Lower Limit
IERANGEMODE	TOGGLE	F	I/E AutoRange
IERANGE	IQUANT	10	I/E Range
ACHSELECT	IQUANT	1	Ach Select
ACHRANGE	IQUANT	2	Ach Range
ACHOFFSETENABLE	TOGGLE	F	Ach Offset Enable
ACHOFFSET	QUANT	0	Ach Offset (V)
ACHFILTER	IQUANT	1	Ach Filter
CABLEID	IQUANT	14	Cable ID
DCCALDATE	LABEL	20-10-2016	DC Calibration Date
ACCALDATE	LABEL	12/3/2015	AC Calibration Date
FRAMEWORKVERSION	QUANT	7.01	Framework Version
INSTRUMENTVERSION	LABEL	4.00	Instrument Version
CURVE	TABLE	79
	Pt	T	Vf	Im	Vu	Pwr	Sig	Ach	Temp	IERange	Over
	#	s	V	A	V	W	V	V	deg C	#	bits
	0	0.013333	5.57574E-001	5.99669E-003	0.00000E+000	3.34360E-003	3.59960E-001	-1.02098E+000	3.57750E+000	10	...........
	1	0.026667	5.65620E-001	5.99477E-003	0.00000E+000	3.39076E-003	3.59960E-001	-1.01037E+000	3.57750E+000	10	...........
	2	0.04	5.72909E-001	5.99322E-003	0.00000E+000	3.43357E-003	3.59960E-001	-1.01493E+000	3.57750E+000	10	...........
	3	0.053333	5.79771E-001	5.99055E-003	0.00000E+000	3.47315E-003	3.59960E-001	-1.02059E+000	3.57750E+000	10	...........
	4	0.066667	5.86395E-001	5.99523E-003	0.00000E+000	3.51557E-003	3.59960E-001	-1.01041E+000	3.57750E+000	10	...........
	5	0.08	5.92855E-001	5.99683E-003	0.00000E+000	3.55525E-003	3.59960E-001	-1.01504E+000	3.57750E+000	10	...........
	6	0.093333	5.99108E-001	5.99523E-003	0.00000E+000	3.59179E-003	3.59960E-001	-1.02063E+000	3.57750E+000	10	...........
	7	0.106667	6.05223E-001	5.99446E-003	0.00000E+000	3.62799E-003	3.59960E-001	-1.01042E+000	3.57750E+000	10	...........
	8	0.12	6.11337E-001	5.99651E-003	0.00000E+000	3.66589E-003	3.59960E-001	-1.01510E+000	3.57750E+000	10	...........
	9	0.133333	6.17362E-001	5.99395E-003	0.00000E+000	3.70044E-003	3.59960E-001	-1.02104E+000	3.57750E+000	10	...........
	10	0.146667	6.23285E-001	5.99264E-003	0.00000E+000	3.73512E-003	3.59960E-001	-1.01054E+000	3.57750E+000	10	...........
	11	0.16	6.29181E-001	5.99349E-003	0.00000E+000	3.77099E-003	3.59960E-001	-1.01486E+000	3.57750E+000	10	...........
	12	0.173333	6.34985E-001	5.99745E-003	0.00000E+000	3.80829E-003	3.59960E-001	-1.02049E+000	3.57750E+000	10	...........
	13	0.186667	6.40792E-001	5.99319E-003	0.00000E+000	3.84039E-003	3.59960E-001	-1.01031E+000	3.57750E+000	10	...........
	14	0.2	6.46515E-001	5.99258E-003	0.00000E+000	3.87429E-003	3.59960E-001	-1.01477E+000	3.57750E+000	10	...........
	15	0.213333	6.52293E-001	5.99507E-003	0.00000E+000	3.91054E-003	3.59960E-001	-1.02034E+000	3.57750E+000	10	...........
	16	0.226667	6.57931E-001	5.99506E-003	0.00000E+000	3.94434E-003	3.59960E-001	-1.00992E+000	3.57750E+000	10	...........
	17	0.24	6.63656E-001	5.99384E-003	0.00000E+000	3.97785E-003	3.59960E-001	-1.01432E+000	3.57750E+000	10	...........
	18	0.253333	6.69306E-001	5.99435E-003	0.00000E+000	4.01205E-003	3.59960E-001	-1.02015E+000	3.57750E+000	10	...........
	19	0.266667	6.74945E-001	5.99312E-003	0.00000E+000	4.04503E-003	3.59960E-001	-1.00999E+000	3.57750E+000	10	...........
	20	0.28	6.80542E-001	5.99151E-003	0.00000E+000	4.07747E-003	3.59960E-001	-1.01470E+000	3.57750E+000	10	...........
	21	0.293333	6.86128E-001	5.99338E-003	0.00000E+000	4.11223E-003	3.59960E-001	-1.02021E+000	3.57750E+000	10	...........
	22	0.306667	6.91731E-001	5.99234E-003	0.00000E+000	4.14509E-003	3.59960E-001	-1.00983E+000	3.57750E+000	10	...........
	23	0.32	6.97331E-001	5.99465E-003	0.00000E+000	4.18025E-003	3.59960E-001	-1.01424E+000	3.57750E+000	10	...........
	24	0.333333	7.02924E-001	5.99154E-003	0.00000E+000	4.21160E-003	3.59960E-001	-1.02015E+000	3.57750E+000	10	...........
	25	0.346667	7.08461E-001	5.99266E-003	0.00000E+000	4.24557E-003	3.59960E-001	-1.00993E+000	3.57750E+000	10	...........
	26	0.36	7.13973E-001	5.99599E-003	0.00000E+000	4.28098E-003	3.59960E-001	-1.01420E+000	3.57750E+000	10	...........
	27	0.373333	7.19574E-001	5.99420E-003	0.00000E+000	4.31327E-003	3.59960E-001	-1.01988E+000	3.57750E+000	10	...........
	28	0.386667	7.25136E-001	5.99226E-003	0.00000E+000	4.34520E-003	3.59960E-001	-1.00951E+000	3.57750E+000	10	...........
	29	0.4	7.30672E-001	5.99474E-003	0.00000E+000	4.38019E-003	3.59960E-001	-1.01432E+000	3.57750E+000	10	...........
	30	0.413333	7.36223E-001	5.99396E-003	0.00000E+000	4.41289E-003	3.59960E-001	-1.02022E+000	3.57750E+000	10	...........
	31	0.426667	7.41762E-001	5.99590E-003	0.00000E+000	4.44753E-003	3.59960E-001	-1.00973E+000	3.57750E+000	10	...........
	32	0.44	7.47272E-001	5.99037E-003	0.00000E+000	4.47643E-003	3.59960E-001	-1.01424E+000	3.57750E+000	10	...........
	33	0.453333	7.52823E-001	5.99536E-003	0.00000E+000	4.51344E-003	3.59960E-001	-1.02021E+000	3.57750E+000	10	...........
	34	0.466667	7.58377E-001	5.99458E-003	0.00000E+000	4.54616E-003	3.59960E-001	-1.00988E+000	3.57750E+000	10	...........
	35	0.48	7.63928E-001	5.99258E-003	0.00000E+000	4.57790E-003	3.59960E-001	-1.01439E+000	3.57750E+000	10	...........
	36	0.493333	7.69486E-001	5.99403E-003	0.00000E+000	4.61232E-003	3.59960E-001	-1.01999E+000	3.57750E+000	10	...........
	37	0.506667	7.74991E-001	5.99826E-003	0.00000E+000	4.64859E-003	3.59960E-001	-1.00959E+000	3.57750E+000	10	...........
	38	0.52	7.80509E-001	5.99495E-003	0.00000E+000	4.67911E-003	3.59960E-001	-1.01407E+000	3.57750E+000	10	...........
	39	0.533333	7.86069E-001	5.99412E-003	0.00000E+000	4.71179E-003	3.59960E-001	-1.01955E+000	3.57750E+000	10	...........
	40	0.546667	7.91637E-001	5.99228E-003	0.00000E+000	4.74371E-003	3.59960E-001	-1.00941E+000	3.57770E+000	10	...........
	41	0.56	7.97178E-001	5.99333E-003	0.00000E+000	4.77775E-003	3.59960E-001	-1.01367E+000	3.57770E+000	10	...........
	42	0.573333	8.02706E-001	5.99615E-003	0.00000E+000	4.81314E-003	3.59960E-001	-1.01950E+000	3.57770E+000	10	...........
[...]
	49	0.666667	8.41522E-001	5.99603E-003	0.00000E+000	5.04579E-003	3.59960E-001	-1.00945E+000	3.57770E+000	10	...........
	50	0.68	8.47086E-001	5.99240E-003	0.00000E+000	5.07608E-003	3.59960E-001	-1.01389E+000	3.57770E+000	10	...........
	51	0.693333	8.52591E-001	5.99550E-003	0.00000E+000	5.11171E-003	3.59960E-001	-1.01969E+000	3.57770E+000	10	...........
	52	0.706667	8.58148E-001	5.99071E-003	0.00000E+000	5.14092E-003	3.59960E-001	-1.00919E+000	3.57770E+000	10	...........
	53	0.72	8.63689E-001	5.99367E-003	0.00000E+000	5.17666E-003	3.59960E-001	-1.01364E+000	3.57770E+000	10	...........
	54	0.733333	8.69219E-001	5.99404E-003	0.00000E+000	5.21014E-003	3.59960E-001	-1.01995E+000	3.57770E+000	10	...........
	55	0.746667	8.74741E-001	5.99134E-003	0.00000E+000	5.24087E-003	3.59960E-001	-1.00944E+000	3.57770E+000	10	...........
	56	0.76	8.80307E-001	5.99651E-003	0.00000E+000	5.27877E-003	3.59960E-001	-1.01389E+000	3.57770E+000	10	...........
	57	0.773333	8.85824E-001	5.99679E-003	0.00000E+000	5.31210E-003	3.59960E-001	-1.01973E+000	3.57770E+000	10	...........
	58	0.786667	8.91301E-001	5.99596E-003	0.00000E+000	5.34421E-003	3.59960E-001	-1.00945E+000	3.57770E+000	10	...........
	59	0.8	8.96805E-001	5.99131E-003	0.00000E+000	5.37303E-003	3.59960E-001	-1.01409E+000	3.57770E+000	10	...........
	60	0.813333	9.02344E-001	5.99225E-003	0.00000E+000	5.40707E-003	3.59960E-001	-1.02019E+000	3.57770E+000	10	...........
	61	0.826667	9.07817E-001	5.99515E-003	0.00000E+000	5.44250E-003	3.59960E-001	-1.00958E+000	3.57770E+000	10	...........
	62	0.84	9.13316E-001	5.99185E-003	0.00000E+000	5.47245E-003	3.59960E-001	-1.01388E+000	3.57770E+000	10	...........
	63	0.853333	9.18789E-001	5.99676E-003	0.00000E+000	5.50976E-003	3.59960E-001	-1.01983E+000	3.57770E+000	10	...........
	64	0.866667	9.24295E-001	5.99061E-003	0.00000E+000	5.53709E-003	3.59960E-001	-1.00920E+000	3.57770E+000	10	...........
	65	0.88	9.29748E-001	5.99610E-003	0.00000E+000	5.57486E-003	3.59960E-001	-1.01383E+000	3.57770E+000	10	...........
	66	0.893333	9.35153E-001	5.99532E-003	0.00000E+000	5.60654E-003	3.59960E-001	-1.01955E+000	3.57770E+000	10	...........
	67	0.906667	9.40597E-001	5.99243E-003	0.00000E+000	5.63646E-003	3.59960E-001	-1.00916E+000	3.57770E+000	10	...........
	68	0.92	9.46020E-001	5.99366E-003	0.00000E+000	5.67012E-003	3.59960E-001	-1.01362E+000	3.57770E+000	10	...........
	69	0.933333	9.51407E-001	5.99375E-003	0.00000E+000	5.70250E-003	3.59960E-001	-1.01980E+000	3.57770E+000	10	...........
	70	0.946667	9.56822E-001	5.99320E-003	0.00000E+000	5.73442E-003	3.59960E-001	-1.00931E+000	3.57770E+000	10	...........
	71	0.96	9.62169E-001	5.99010E-003	0.00000E+000	5.76349E-003	3.59960E-001	-1.01347E+000	3.57770E+000	10	...........
	72	0.97333	9.67504E-001	5.99635E-003	0.00000E+000	5.80149E-003	3.59960E-001	-1.01971E+000	3.57770E+000	10	...........
	73	0.98667	9.72876E-001	5.99463E-003	0.00000E+000	5.83203E-003	3.59960E-001	-1.00922E+000	3.57770E+000	10	...........
	74	1	9.78218E-001	5.99594E-003	0.00000E+000	5.86534E-003	3.59960E-001	-1.01369E+000	3.57770E+000	10	...........
	75	1.01333	9.83425E-001	5.99369E-003	0.00000E+000	5.89434E-003	3.59960E-001	-1.01982E+000	3.57770E+000	10	...........
	76	1.02667	9.88664E-001	5.99688E-003	0.00000E+000	5.92890E-003	3.59960E-001	-1.00903E+000	3.57770E+000	10	...........
	77	1.04	9.93880E-001	5.99621E-003	0.00000E+000	5.95952E-003	3.59960E-001	-1.01345E+000	3.57770E+000	10	...........
	78	1.05	9.98418E-001	5.99468E-003	0.00000E+000	5.98520E-003	3.59960E-001	-1.01879E+000	3.57770E+000	10	...........
STARTTIMEOFFSET	QUANT	30.14167	Start Time Offset (s)

File: CHARGE_#16.DTA
EXPLAIN
TAG	PWR800_CHARGE
TITLE	LABEL	PWR Cyclic Charge Discharge (Cell) - Charge Step	Test &Identifier
DATE	LABEL	22-6-2017	Date
TIME	LABEL	15:35:40	Time
NOTES	NOTES	3	&Notes...
	supercap test cell
	0.6mg
	6M KOH
PSTAT	PSTAT	IFC5000-01520	Potentiostat
CAPACITY	QUANT	1.00000E-003	Capacity (A-hr)
CELLTYPE	SELECTOR	1	&Cell Type
WORKINGCONNECTION	SELECTOR	0	&Working Lead
MAXCHARGETIME	VARIABLEANDUNITS	1.00000E+002	s	1.00000E+002	second(s)	Max &Charge Time
CHARGECURRENT	QUANT	6.00000E-003	&Charge Current (A)
VOLTAGEFINISH	TWOPARAM	F	1.00000E-003	3.60000E+003	&Voltage Finish	 I (A) < 	Max Time(s)
SAMPLETIME	QUANT	1.00000E-002	Sa&mple Period (s)
CHARGESTOPAT1	MULTIPARAM	4	1.00000E+000	Charge Stop At &1	Voltage > Limit	V
CHARGESTOPAT2	MULTIPARAM	0	0.00000E+000	Charge Stop At &2	None	N/A
AESBHCSELECTOR	TOGGLE	F	Save Both Half Cells
IRCOMP	TOGGLE	F	IR &Measure
EOC	QUANT	0	Open Circuit (V)
SEQUENCER	TOGGLE	TRUE	Run as Sequence
PSTATMODEL	IQUANT	53	Pstat Model
PSTATSECTION	LABEL	IFC5000-01520	Pstat Section
PSTATSERIALNO	LABEL	01520	Pstat Serial Number
CTRLMODE	IQUANT	0	Control Mode
ELECTROMETER	IQUANT	1	RE=0 or CS=1
IESTAB	IQUANT	0	I/E Stability
CASPEED	IQUANT	4	Control Amp Speed
CONVENTION	IQUANT	1	Current Convention
ICHRANGE	IQUANT	2	Ich Range
ICHRANGEMODE	TOGGLE	T	Ich Auto Range
ICHOFFSETENABLE	TOGGLE	F	Ich Offset Enable
ICHOFFSET	QUANT	0	Ich Offset (V)
ICHFILTER	IQUANT	1	Ich Filter
VCHRANGE	IQUANT	2	Vch Range
VCHRANGEMODE	TOGGLE	T	Vch Auto Range
VCHOFFSETENABLE	TOGGLE	F	Vch Offset Enable
VCHOFFSET	QUANT	0	Vch Offset (V)
VCHFILTER	IQUANT	1	Vch Filter
IERANGELOWERLIMIT	IQUANT	9	I/E Range Lower Limit
IERANGEMODE	TOGGLE	F	I/E AutoRange
IERANGE	IQUANT	10	I/E Range
ACHSELECT	IQUANT	1	Ach Select
ACHRANGE	IQUANT	2	Ach Range
ACHOFFSETENABLE	TOGGLE	F	Ach Offset Enable
ACHOFFSET	QUANT	0	Ach Offset (V)
ACHFILTER	IQUANT	1	Ach Filter
CABLEID	IQUANT	14	Cable ID
DCCALDATE	LABEL	20-10-2016	DC Calibration Date
ACCALDATE	LABEL	12/3/2015	AC Calibration Date
FRAMEWORKVERSION	QUANT	7.01	Framework Version
INSTRUMENTVERSION	LABEL	4.00	Instrument Version
CURVE	TABLE	79
	Pt	T	Vf	Im	Vu	Pwr	Sig	Ach	Temp	IERange	Over
	#	s	V	A	V	W	V	V	deg C	#	bits
	0	0.013333	5.58405E-001	5.99635E-003	0.00000E+000	3.34839E-003	3.59960E-001	-1.01510E+000	3.57800E+000	10	...........
	1	0.026667	5.66446E-001	5.99439E-003	0.00000E+000	3.39550E-003	3.59960E-001	-1.02206E+000	3.57800E+000	10	...........
	2	0.04	5.73696E-001	5.98976E-003	0.00000E+000	3.43630E-003	3.59960E-001	-1.01110E+000	3.57800E+000	10	...........
	3	0.053333	5.80573E-001	6.00001E-003	0.00000E+000	3.48344E-003	3.59960E-001	-1.01492E+000	3.57800E+000	10	...........
	4	0.066667	5.87196E-001	5.99222E-003	0.00000E+000	3.51861E-003	3.59960E-001	-1.02181E+000	3.57800E+000	10	...........
	5	0.08	5.93612E-001	5.99448E-003	0.00000E+000	3.55840E-003	3.59960E-001	-1.01106E+000	3.57800E+000	10	...........
	6	0.093333	5.99929E-001	5.99845E-003	0.00000E+000	3.59864E-003	3.59960E-001	-1.01470E+000	3.57800E+000	10	...........
	7	0.106667	6.06066E-001	5.99639E-003	0.00000E+000	3.63421E-003	3.59960E-001	-1.02150E+000	3.57800E+000	10	...........
	8	0.12	6.12146E-001	5.99279E-003	0.00000E+000	3.66846E-003	3.59960E-001	-1.01093E+000	3.57800E+000	10	...........
	9	0.133333	6.18225E-001	5.99612E-003	0.00000E+000	3.70695E-003	3.59960E-001	-1.01497E+000	3.57800E+000	10	...........
	10	0.146667	6.24134E-001	5.99304E-003	0.00000E+000	3.74046E-003	3.59960E-001	-1.02179E+000	3.57800E+000	10	...........
	11	0.16	6.29987E-001	5.99011E-003	0.00000E+000	3.77369E-003	3.59960E-001	-1.01084E+000	3.57800E+000	10	...........
	12	0.173333	6.35857E-001	5.99472E-003	0.00000E+000	3.81178E-003	3.59960E-001	-1.01479E+000	3.57800E+000	10	...........
	13	0.186667	6.41678E-001	5.99724E-003	0.00000E+000	3.84830E-003	3.59960E-001	-1.02165E+000	3.57800E+000	10	...........
	14	0.2	6.47442E-001	5.99542E-003	0.00000E+000	3.88169E-003	3.59960E-001	-1.01094E+000	3.57800E+000	10	...........
	15	0.213333	6.53197E-001	5.99623E-003	0.00000E+000	3.91672E-003	3.59960E-001	-1.01501E+000	3.57800E+000	10	...........
	16	0.226667	6.58889E-001	5.99337E-003	0.00000E+000	3.94897E-003	3.59960E-001	-1.02114E+000	3.57800E+000	10	...........
	17	0.24	6.64596E-001	5.99120E-003	0.00000E+000	3.98173E-003	3.59960E-001	-1.01018E+000	3.57800E+000	10	...........
	18	0.253333	6.70251E-001	5.99437E-003	0.00000E+000	4.01773E-003	3.59960E-001	-1.01426E+000	3.57800E+000	10	...........
	19	0.266667	6.75878E-001	5.99480E-003	0.00000E+000	4.05176E-003	3.59960E-001	-1.02126E+000	3.57800E+000	10	...........
	20	0.28	6.81514E-001	5.99247E-003	0.00000E+000	4.08395E-003	3.59960E-001	-1.01042E+000	3.57800E+000	10	...........
	21	0.293333	6.87133E-001	5.99661E-003	0.00000E+000	4.12047E-003	3.59960E-001	-1.01433E+000	3.57800E+000	10	...........
	22	0.306667	6.92740E-001	5.99358E-003	0.00000E+000	4.15200E-003	3.59960E-001	-1.02113E+000	3.57800E+000	10	...........
	23	0.32	6.98307E-001	5.99462E-003	0.00000E+000	4.18608E-003	3.59960E-001	-1.01037E+000	3.57800E+000	10	...........
	24	0.333333	7.03878E-001	5.99661E-003	0.00000E+000	4.22088E-003	3.59960E-001	-1.01446E+000	3.57800E+000	10	...........
	25	0.346667	7.09444E-001	5.99382E-003	0.00000E+000	4.25228E-003	3.59960E-001	-1.02124E+000	3.57800E+000	10	...........
	26	0.36	7.15034E-001	5.99414E-003	0.00000E+000	4.28601E-003	3.59960E-001	-1.01035E+000	3.57800E+000	10	...........
	27	0.373333	7.20633E-001	5.99332E-003	0.00000E+000	4.31899E-003	3.59960E-001	-1.01416E+000	3.57800E+000	10	...........
	28	0.386667	7.26210E-001	5.99342E-003	0.00000E+000	4.35248E-003	3.59960E-001	-1.02129E+000	3.57800E+000	10	...........
	29	0.4	7.31725E-001	5.99172E-003	0.00000E+000	4.38429E-003	3.59960E-001	-1.01050E+000	3.57800E+000	10	...........
	30	0.413333	7.37274E-001	5.99567E-003	0.00000E+000	4.42045E-003	3.59960E-001	-1.01436E+000	3.57800E+000	10	...........
	31	0.426667	7.42813E-001	5.99731E-003	0.00000E+000	4.45488E-003	3.59960E-001	-1.02085E+000	3.57800E+000	10	...........
	32	0.44	7.48387E-001	5.99456E-003	0.00000E+000	4.48625E-003	3.59960E-001	-1.01016E+000	3.57800E+000	10	...........
	33	0.453333	7.53938E-001	5.99377E-003	0.00000E+000	4.51893E-003	3.59960E-001	-1.01430E+000	3.57800E+000	10	...........
	34	0.466667	7.59486E-001	5.99469E-003	0.00000E+000	4.55288E-003	3.59960E-001	-1.02130E+000	3.57800E+000	10	...........
	35	0.48	7.65035E-001	5.99286E-003	0.00000E+000	4.58475E-003	3.59960E-001	-1.01031E+000	3.57800E+000	10	...........
	36	0.493333	7.70559E-001	5.99235E-003	0.00000E+000	4.61746E-003	3.59960E-001	-1.01387E+000	3.57800E+000	10	...........
	37	0.506667	7.76119E-001	5.99356E-003	0.00000E+000	4.65172E-003	3.59960E-001	-1.02041E+000	3.57800E+000	10	...........
	38	0.52	7.81637E-001	5.99275E-003	0.00000E+000	4.68415E-003	3.59960E-001	-1.00951E+000	3.57800E+000	10	...........
	39	0.533333	7.87154E-001	5.99434E-003	0.00000E+000	4.71847E-003	3.59960E-001	-1.01312E+000	3.57800E+000	10	...........
	40	0.546667	7.92741E-001	5.99714E-003	0.00000E+000	4.75418E-003	3.59960E-001	-1.01985E+000	3.57800E+000	10	...........
	41	0.56	7.98316E-001	5.99517E-003	0.00000E+000	4.78604E-003	3.59960E-001	-1.00857E+000	3.57800E+000	10	...........
	42	0.573333	8.03841E-001	5.99094E-003	0.00000E+000	4.81577E-003	3.59960E-001	-1.01216E+000	3.57800E+000	10	...........
[...]
	49	0.666667	8.42646E-001	5.99655E-003	0.00000E+000	5.05296E-003	3.59960E-001	-1.01970E+000	3.57800E+000	10	...........
	50	0.68	8.48188E-001	5.99348E-003	0.00000E+000	5.08360E-003	3.59960E-001	-1.00878E+000	3.57860E+000	10	...........
	51	0.693333	8.53719E-001	5.99576E-003	0.00000E+000	5.11869E-003	3.59960E-001	-1.01236E+000	3.57860E+000	10	...........
	52	0.706667	8.59283E-001	5.99434E-003	0.00000E+000	5.15084E-003	3.59960E-001	-1.01934E+000	3.57860E+000	10	...........
	53	0.72	8.64839E-001	5.99698E-003	0.00000E+000	5.18643E-003	3.59960E-001	-1.00877E+000	3.57860E+000	10	...........
	54	0.733333	8.70370E-001	5.99802E-003	0.00000E+000	5.22049E-003	3.59960E-001	-1.01284E+000	3.57860E+000	10	...........
	55	0.746667	8.75919E-001	5.99534E-003	0.00000E+000	5.25143E-003	3.59960E-001	-1.02005E+000	3.57860E+000	10	...........
	56	0.76	8.81470E-001	5.99163E-003	0.00000E+000	5.28144E-003	3.59960E-001	-1.00881E+000	3.57860E+000	10	...........
	57	0.773333	8.86996E-001	5.99325E-003	0.00000E+000	5.31599E-003	3.59960E-001	-1.01289E+000	3.57860E+000	10	...........
	58	0.786667	8.92504E-001	5.99341E-003	0.00000E+000	5.34914E-003	3.59960E-001	-1.02017E+000	3.57860E+000	10	...........
	59	0.8	8.98006E-001	5.99337E-003	0.00000E+000	5.38209E-003	3.59960E-001	-1.00969E+000	3.57860E+000	10	...........
	60	0.813333	9.03472E-001	5.99573E-003	0.00000E+000	5.41698E-003	3.59960E-001	-1.01343E+000	3.57860E+000	10	...........
	61	0.826667	9.09010E-001	5.99304E-003	0.00000E+000	5.44774E-003	3.59960E-001	-1.02022E+000	3.57860E+000	10	...........
	62	0.84	9.14527E-001	5.99511E-003	0.00000E+000	5.48269E-003	3.59960E-001	-1.00931E+000	3.57860E+000	10	...........
	63	0.853333	9.20031E-001	5.99603E-003	0.00000E+000	5.51654E-003	3.59960E-001	-1.01309E+000	3.57860E+000	10	...........
	64	0.866667	9.25511E-001	5.99500E-003	0.00000E+000	5.54844E-003	3.59960E-001	-1.02020E+000	3.57860E+000	10	...........
	65	0.88	9.30952E-001	5.99477E-003	0.00000E+000	5.58085E-003	3.59960E-001	-1.00923E+000	3.57860E+000	10	...........
	66	0.893333	9.36413E-001	5.99301E-003	0.00000E+000	5.61193E-003	3.59960E-001	-1.01303E+000	3.57860E+000	10	...........
	67	0.906667	9.41850E-001	5.99684E-003	0.00000E+000	5.64812E-003	3.59960E-001	-1.02017E+000	3.57860E+000	10	...........
	68	0.92	9.47299E-001	5.99221E-003	0.00000E+000	5.67641E-003	3.59960E-001	-1.00974E+000	3.57860E+000	10	...........
	69	0.933333	9.52671E-001	5.99382E-003	0.00000E+000	5.71014E-003	3.59960E-001	-1.01357E+000	3.57860E+000	10	...........
	70	0.946667	9.58078E-001	5.99478E-003	0.00000E+000	5.74347E-003	3.59960E-001	-1.02063E+000	3.57860E+000	10	...........
	71	0.96	9.63410E-001	5.99459E-003	0.00000E+000	5.77526E-003	3.59960E-001	-1.00965E+000	3.57860E+000	10	...........
	72	0.97333	9.68731E-001	5.99279E-003	0.00000E+000	5.80540E-003	3.59960E-001	-1.01339E+000	3.57860E+000	10	...........
	73	0.98667	9.74069E-001	5.99261E-003	0.00000E+000	5.83722E-003	3.59960E-001	-1.02079E+000	3.57860E+000	10	...........
	74	1	9.79379E-001	5.99404E-003	0.00000E+000	5.87044E-003	3.59960E-001	-1.00981E+000	3.57860E+000	10	...........
	75	1.01333	9.84603E-001	5.99592E-003	0.00000E+000	5.90360E-003	3.59960E-001	-1.01361E+000	3.57860E+000	10	...........
	76	1.02667	9.89865E-001	5.99270E-003	0.00000E+000	5.93196E-003	3.59960E-001	-1.02085E+000	3.57860E+000	10	...........
	77	1.04	9.95010E-001	5.99148E-003	0.00000E+000	5.96158E-003	3.59960E-001	-1.00947E+000	3.57860E+000	10	...........
	78	1.04833	9.99262E-001	5.99423E-003	0.00000E+000	5.98980E-003	3.59960E-001	-1.02261E+000	3.57860E+000	10	...........
STARTTIMEOFFSET	QUANT	32.22334	Start Time Offset (s)