Folder: Tesis/Data/CV_CRGO300517_1/PWRCCD_CRGO300517_1/CHARGE_DISCHARGE (part 191)

File: CHARGE_#388.DTA
EXPLAIN
TAG	PWR800_CHARGE
TITLE	LABEL	PWR Cyclic Charge Discharge (Cell) - Charge Step	Test &Identifier
DATE	LABEL	22-6-2017	Date
TIME	LABEL	15:51:30	Time
NOTES	NOTES	3	&Notes...
	supercap test cell
	0.6mg
	6M KOH
PSTAT	PSTAT	IFC5000-01520	Potentiostat
CAPACITY	QUANT	1.00000E-003	Capacity (A-hr)
CELLTYPE	SELECTOR	1	&Cell Type
WORKINGCONNECTION	SELECTOR	0	&Working Lead
MAXCHARGETIME	VARIABLEANDUNITS	1.00000E+002	s	1.00000E+002	second(s)	Max &Charge Time
CHARGECURRENT	QUANT	6.00000E-003	&Charge Current (A)
VOLTAGEFINISH	TWOPARAM	F	1.00000E-003	3.60000E+003	&Voltage Finish	 I (A) < 	Max Time(s)
SAMPLETIME	QUANT	1.00000E-002	Sa&mple Period (s)
CHARGESTOPAT1	MULTIPARAM	4	1.00000E+000	Charge Stop At &1	Voltage > Limit	V
CHARGESTOPAT2	MULTIPARAM	0	0.00000E+000	Charge Stop At &2	None	N/A
AESBHCSELECTOR	TOGGLE	F	Save Both Half Cells
IRCOMP	TOGGLE	F	IR &Measure
EOC	QUANT	0	Open Circuit (V)
SEQUENCER	TOGGLE	TRUE	Run as Sequence
PSTATMODEL	IQUANT	53	Pstat Model
PSTATSECTION	LABEL	IFC5000-01520	Pstat Section
PSTATSERIALNO	LABEL	01520	Pstat Serial Number
CTRLMODE	IQUANT	0	Control Mode
ELECTROMETER	IQUANT	1	RE=0 or CS=1
IESTAB	IQUANT	0	I/E Stability
CASPEED	IQUANT	4	Control Amp Speed
CONVENTION	IQUANT	1	Current Convention
ICHRANGE	IQUANT	2	Ich Range
ICHRANGEMODE	TOGGLE	T	Ich Auto Range
ICHOFFSETENABLE	TOGGLE	F	Ich Offset Enable
ICHOFFSET	QUANT	0	Ich Offset (V)
ICHFILTER	IQUANT	1	Ich Filter
VCHRANGE	IQUANT	2	Vch Range
VCHRANGEMODE	TOGGLE	T	Vch Auto Range
VCHOFFSETENABLE	TOGGLE	F	Vch Offset Enable
VCHOFFSET	QUANT	0	Vch Offset (V)
VCHFILTER	IQUANT	1	Vch Filter
IERANGELOWERLIMIT	IQUANT	9	I/E Range Lower Limit
IERANGEMODE	TOGGLE	F	I/E AutoRange
IERANGE	IQUANT	10	I/E Range
ACHSELECT	IQUANT	1	Ach Select
ACHRANGE	IQUANT	2	Ach Range
ACHOFFSETENABLE	TOGGLE	F	Ach Offset Enable
ACHOFFSET	QUANT	0	Ach Offset (V)
ACHFILTER	IQUANT	1	Ach Filter
CABLEID	IQUANT	14	Cable ID
DCCALDATE	LABEL	20-10-2016	DC Calibration Date
ACCALDATE	LABEL	12/3/2015	AC Calibration Date
FRAMEWORKVERSION	QUANT	7.01	Framework Version
INSTRUMENTVERSION	LABEL	4.00	Instrument Version
CURVE	TABLE	60
	Pt	T	Vf	Im	Vu	Pwr	Sig	Ach	Temp	IERange	Over
	#	s	V	A	V	W	V	V	deg C	#	bits
	0	0.013333	6.24221E-001	5.99451E-003	0.00000E+000	3.74190E-003	3.59960E-001	-1.12607E+000	3.57670E+000	10	...........
	1	0.026667	6.32926E-001	5.99213E-003	0.00000E+000	3.79258E-003	3.59960E-001	-1.11992E+000	3.57670E+000	10	...........
	2	0.04	6.40951E-001	5.99512E-003	0.00000E+000	3.84258E-003	3.59960E-001	-1.12801E+000	3.57670E+000	10	...........
	3	0.053333	6.48578E-001	5.99109E-003	0.00000E+000	3.88569E-003	3.59960E-001	-1.12614E+000	3.57670E+000	10	...........
	4	0.066667	6.55947E-001	5.99968E-003	0.00000E+000	3.93547E-003	3.59960E-001	-1.11968E+000	3.57670E+000	10	...........
	5	0.08	6.63097E-001	5.99189E-003	0.00000E+000	3.97321E-003	3.59960E-001	-1.12767E+000	3.57670E+000	10	...........
	6	0.093333	6.70133E-001	5.99391E-003	0.00000E+000	4.01672E-003	3.59960E-001	-1.12607E+000	3.57670E+000	10	...........
	7	0.106667	6.77021E-001	5.99668E-003	0.00000E+000	4.05988E-003	3.59960E-001	-1.11979E+000	3.57670E+000	10	...........
	8	0.12	6.83820E-001	5.99175E-003	0.00000E+000	4.09727E-003	3.59960E-001	-1.12763E+000	3.57670E+000	10	...........
	9	0.133333	6.90555E-001	5.99341E-003	0.00000E+000	4.13877E-003	3.59960E-001	-1.12564E+000	3.57670E+000	10	...........
	10	0.146667	6.97253E-001	5.99076E-003	0.00000E+000	4.17707E-003	3.59960E-001	-1.11940E+000	3.57670E+000	10	...........
	11	0.16	7.03889E-001	5.99542E-003	0.00000E+000	4.22011E-003	3.59960E-001	-1.12743E+000	3.57713E+000	10	...........
	12	0.173333	7.10452E-001	5.99306E-003	0.00000E+000	4.25778E-003	3.59960E-001	-1.12587E+000	3.57720E+000	10	...........
	13	0.186667	7.17018E-001	5.99523E-003	0.00000E+000	4.29869E-003	3.59960E-001	-1.11953E+000	3.57720E+000	10	...........
	14	0.2	7.23584E-001	5.99327E-003	0.00000E+000	4.33664E-003	3.59960E-001	-1.12770E+000	3.57720E+000	10	...........
	15	0.213333	7.30054E-001	5.98919E-003	0.00000E+000	4.37243E-003	3.59960E-001	-1.12564E+000	3.57720E+000	10	...........
	16	0.226667	7.36525E-001	5.99869E-003	0.00000E+000	4.41819E-003	3.59960E-001	-1.11945E+000	3.57720E+000	10	...........
	17	0.24	7.42978E-001	5.99212E-003	0.00000E+000	4.45201E-003	3.59960E-001	-1.12771E+000	3.57720E+000	10	...........
	18	0.253333	7.49401E-001	5.99443E-003	0.00000E+000	4.49223E-003	3.59960E-001	-1.12586E+000	3.57720E+000	10	...........
	19	0.266667	7.55840E-001	5.99294E-003	0.00000E+000	4.52970E-003	3.59960E-001	-1.11945E+000	3.57720E+000	10	...........
	20	0.28	7.62222E-001	5.99229E-003	0.00000E+000	4.56746E-003	3.59960E-001	-1.12753E+000	3.57720E+000	10	...........
	21	0.293333	7.68628E-001	5.99402E-003	0.00000E+000	4.60718E-003	3.59960E-001	-1.12547E+000	3.57720E+000	10	...........
	22	0.306667	7.75032E-001	5.99650E-003	0.00000E+000	4.64748E-003	3.59960E-001	-1.11931E+000	3.57720E+000	10	...........
	23	0.32	7.81377E-001	5.98991E-003	0.00000E+000	4.68038E-003	3.59960E-001	-1.12759E+000	3.57720E+000	10	...........
	24	0.333333	7.87747E-001	5.99412E-003	0.00000E+000	4.72184E-003	3.59960E-001	-1.12559E+000	3.57720E+000	10	...........
	25	0.346667	7.94092E-001	5.99468E-003	0.00000E+000	4.76032E-003	3.59960E-001	-1.11922E+000	3.57720E+000	10	...........
	26	0.36	8.00433E-001	5.99701E-003	0.00000E+000	4.80021E-003	3.59960E-001	-1.12757E+000	3.57720E+000	10	...........
	27	0.373333	8.06740E-001	5.99572E-003	0.00000E+000	4.83699E-003	3.59960E-001	-1.12573E+000	3.57720E+000	10	...........
	28	0.386667	8.13024E-001	5.99431E-003	0.00000E+000	4.87352E-003	3.59960E-001	-1.11984E+000	3.57720E+000	10	...........
	29	0.4	8.19343E-001	5.99806E-003	0.00000E+000	4.91447E-003	3.59960E-001	-1.12763E+000	3.57720E+000	10	...........
	30	0.413333	8.25604E-001	5.99514E-003	0.00000E+000	4.94961E-003	3.59960E-001	-1.12543E+000	3.57720E+000	10	...........
	31	0.426667	8.31881E-001	5.99446E-003	0.00000E+000	4.98667E-003	3.59960E-001	-1.11943E+000	3.57720E+000	10	...........
	32	0.44	8.38127E-001	5.99480E-003	0.00000E+000	5.02440E-003	3.59960E-001	-1.12738E+000	3.57720E+000	10	...........
	33	0.453333	8.44343E-001	5.99386E-003	0.00000E+000	5.06088E-003	3.59960E-001	-1.12536E+000	3.57720E+000	10	...........
	34	0.466667	8.50577E-001	5.99376E-003	0.00000E+000	5.09816E-003	3.59960E-001	-1.11888E+000	3.57720E+000	10	...........
	35	0.48	8.56772E-001	5.98982E-003	0.00000E+000	5.13191E-003	3.59960E-001	-1.12700E+000	3.57720E+000	10	...........
	36	0.493333	8.63018E-001	5.99088E-003	0.00000E+000	5.17024E-003	3.59960E-001	-1.12525E+000	3.57720E+000	10	...........
	37	0.506667	8.69208E-001	5.99348E-003	0.00000E+000	5.20958E-003	3.59960E-001	-1.11938E+000	3.57720E+000	10	...........
	38	0.52	8.75357E-001	5.99701E-003	0.00000E+000	5.24953E-003	3.59960E-001	-1.12738E+000	3.57720E+000	10	...........
	39	0.533333	8.81518E-001	5.99524E-003	0.00000E+000	5.28491E-003	3.59960E-001	-1.12531E+000	3.57720E+000	10	...........
	40	0.546667	8.87602E-001	5.99544E-003	0.00000E+000	5.32157E-003	3.59960E-001	-1.11906E+000	3.57720E+000	10	...........
	41	0.56	8.93658E-001	5.98924E-003	0.00000E+000	5.35234E-003	3.59960E-001	-1.12720E+000	3.57720E+000	10	...........
	42	0.573333	8.99743E-001	5.99599E-003	0.00000E+000	5.39485E-003	3.59960E-001	-1.12522E+000	3.57720E+000	10	...........
	43	0.586667	9.05788E-001	5.99296E-003	0.00000E+000	5.42835E-003	3.59960E-001	-1.11923E+000	3.57720E+000	10	...........
	44	0.6	9.11815E-001	5.99574E-003	0.00000E+000	5.46701E-003	3.59960E-001	-1.12713E+000	3.57720E+000	10	...........
	45	0.613333	9.17786E-001	5.99201E-003	0.00000E+000	5.49938E-003	3.59960E-001	-1.12499E+000	3.57720E+000	10	...........
	46	0.626667	9.23765E-001	5.99197E-003	0.00000E+000	5.53517E-003	3.59960E-001	-1.11915E+000	3.57720E+000	10	...........
	47	0.64	9.29680E-001	5.99735E-003	0.00000E+000	5.57562E-003	3.59960E-001	-1.12758E+000	3.57720E+000	10	...........
	48	0.653333	9.35559E-001	5.98819E-003	0.00000E+000	5.60230E-003	3.59960E-001	-1.12509E+000	3.57720E+000	10	...........
	49	0.666667	9.41402E-001	5.99276E-003	0.00000E+000	5.64160E-003	3.59960E-001	-1.11918E+000	3.57720E+000	10	...........
	50	0.68	9.47241E-001	5.99120E-003	0.00000E+000	5.67511E-003	3.59960E-001	-1.12721E+000	3.57720E+000	10	...........
	51	0.693333	9.53010E-001	5.99528E-003	0.00000E+000	5.71357E-003	3.59960E-001	-1.12479E+000	3.57720E+000	10	...........
	52	0.706667	9.58750E-001	5.99373E-003	0.00000E+000	5.74649E-003	3.59960E-001	-1.11917E+000	3.57720E+000	10	...........
	53	0.72	9.64435E-001	5.99697E-003	0.00000E+000	5.78369E-003	3.59960E-001	-1.12756E+000	3.57720E+000	10	...........
	54	0.733333	9.70120E-001	5.99418E-003	0.00000E+000	5.81507E-003	3.59960E-001	-1.12507E+000	3.57720E+000	10	...........
	55	0.746667	9.75798E-001	5.99314E-003	0.00000E+000	5.84810E-003	3.59960E-001	-1.11880E+000	3.57720E+000	10	...........
	56	0.76	9.81372E-001	5.99191E-003	0.00000E+000	5.88030E-003	3.59960E-001	-1.12697E+000	3.57720E+000	10	...........
	57	0.773333	9.86947E-001	5.99455E-003	0.00000E+000	5.91630E-003	3.59960E-001	-1.12469E+000	3.57720E+000	10	...........
	58	0.786667	9.92401E-001	5.99323E-003	0.00000E+000	5.94769E-003	3.59960E-001	-1.11874E+000	3.57720E+000	10	...........
	59	0.8	9.97873E-001	5.99460E-003	0.00000E+000	5.98186E-003	3.59960E-001	-1.12724E+000	3.57720E+000	10	...........
STARTTIMEOFFSET	QUANT	683.585	Start Time Offset (s)

File: CHARGE_#389.DTA
EXPLAIN
TAG	PWR800_CHARGE
TITLE	LABEL	PWR Cyclic Charge Discharge (Cell) - Charge Step	Test &Identifier
DATE	LABEL	22-6-2017	Date
TIME	LABEL	15:51:32	Time
NOTES	NOTES	3	&Notes...
	supercap test cell
	0.6mg
	6M KOH
PSTAT	PSTAT	IFC5000-01520	Potentiostat
CAPACITY	QUANT	1.00000E-003	Capacity (A-hr)
CELLTYPE	SELECTOR	1	&Cell Type
WORKINGCONNECTION	SELECTOR	0	&Working Lead
MAXCHARGETIME	VARIABLEANDUNITS	1.00000E+002	s	1.00000E+002	second(s)	Max &Charge Time
CHARGECURRENT	QUANT	6.00000E-003	&Charge Current (A)
VOLTAGEFINISH	TWOPARAM	F	1.00000E-003	3.60000E+003	&Voltage Finish	 I (A) < 	Max Time(s)
SAMPLETIME	QUANT	1.00000E-002	Sa&mple Period (s)
CHARGESTOPAT1	MULTIPARAM	4	1.00000E+000	Charge Stop At &1	Voltage > Limit	V
CHARGESTOPAT2	MULTIPARAM	0	0.00000E+000	Charge Stop At &2	None	N/A
AESBHCSELECTOR	TOGGLE	F	Save Both Half Cells
IRCOMP	TOGGLE	F	IR &Measure
EOC	QUANT	0	Open Circuit (V)
SEQUENCER	TOGGLE	TRUE	Run as Sequence
PSTATMODEL	IQUANT	53	Pstat Model
PSTATSECTION	LABEL	IFC5000-01520	Pstat Section
PSTATSERIALNO	LABEL	01520	Pstat Serial Number
CTRLMODE	IQUANT	0	Control Mode
ELECTROMETER	IQUANT	1	RE=0 or CS=1
IESTAB	IQUANT	0	I/E Stability
CASPEED	IQUANT	4	Control Amp Speed
CONVENTION	IQUANT	1	Current Convention
ICHRANGE	IQUANT	2	Ich Range
ICHRANGEMODE	TOGGLE	T	Ich Auto Range
ICHOFFSETENABLE	TOGGLE	F	Ich Offset Enable
ICHOFFSET	QUANT	0	Ich Offset (V)
ICHFILTER	IQUANT	1	Ich Filter
VCHRANGE	IQUANT	2	Vch Range
VCHRANGEMODE	TOGGLE	T	Vch Auto Range
VCHOFFSETENABLE	TOGGLE	F	Vch Offset Enable
VCHOFFSET	QUANT	0	Vch Offset (V)
VCHFILTER	IQUANT	1	Vch Filter
IERANGELOWERLIMIT	IQUANT	9	I/E Range Lower Limit
IERANGEMODE	TOGGLE	F	I/E AutoRange
IERANGE	IQUANT	10	I/E Range
ACHSELECT	IQUANT	1	Ach Select
ACHRANGE	IQUANT	2	Ach Range
ACHOFFSETENABLE	TOGGLE	F	Ach Offset Enable
ACHOFFSET	QUANT	0	Ach Offset (V)
ACHFILTER	IQUANT	1	Ach Filter
CABLEID	IQUANT	14	Cable ID
DCCALDATE	LABEL	20-10-2016	DC Calibration Date
ACCALDATE	LABEL	12/3/2015	AC Calibration Date
FRAMEWORKVERSION	QUANT	7.01	Framework Version
INSTRUMENTVERSION	LABEL	4.00	Instrument Version
CURVE	TABLE	60
	Pt	T	Vf	Im	Vu	Pwr	Sig	Ach	Temp	IERange	Over
	#	s	V	A	V	W	V	V	deg C	#	bits
	0	0.013333	6.24324E-001	5.99263E-003	0.00000E+000	3.74134E-003	3.59960E-001	-1.12660E+000	3.57730E+000	10	...........
	1	0.026667	6.33050E-001	5.99326E-003	0.00000E+000	3.79403E-003	3.59960E-001	-1.12876E+000	3.57730E+000	10	...........
	2	0.04	6.41078E-001	5.99302E-003	0.00000E+000	3.84199E-003	3.59960E-001	-1.12078E+000	3.57730E+000	10	...........
	3	0.053333	6.48718E-001	5.99508E-003	0.00000E+000	3.88912E-003	3.59960E-001	-1.12657E+000	3.57730E+000	10	...........
	4	0.066667	6.56041E-001	5.99491E-003	0.00000E+000	3.93290E-003	3.59960E-001	-1.12884E+000	3.57730E+000	10	...........
	5	0.08	6.63189E-001	5.99561E-003	0.00000E+000	3.97622E-003	3.59960E-001	-1.12038E+000	3.57730E+000	10	...........
	6	0.093333	6.70246E-001	5.99112E-003	0.00000E+000	4.01552E-003	3.59960E-001	-1.12663E+000	3.57730E+000	10	...........
	7	0.106667	6.77130E-001	5.99819E-003	0.00000E+000	4.06155E-003	3.59960E-001	-1.12867E+000	3.57730E+000	10	...........
	8	0.12	6.83898E-001	5.99239E-003	0.00000E+000	4.09819E-003	3.59960E-001	-1.12055E+000	3.57730E+000	10	...........
	9	0.133333	6.90660E-001	5.99605E-003	0.00000E+000	4.14123E-003	3.59960E-001	-1.12651E+000	3.57730E+000	10	...........
	10	0.146667	6.97357E-001	5.99567E-003	0.00000E+000	4.18112E-003	3.59960E-001	-1.12835E+000	3.57730E+000	10	...........
	11	0.16	7.04006E-001	5.99281E-003	0.00000E+000	4.21897E-003	3.59960E-001	-1.12049E+000	3.57730E+000	10	...........
	12	0.173333	7.10557E-001	5.99165E-003	0.00000E+000	4.25741E-003	3.59960E-001	-1.12658E+000	3.57730E+000	10	...........
	13	0.186667	7.17113E-001	5.99077E-003	0.00000E+000	4.29606E-003	3.59960E-001	-1.12866E+000	3.57730E+000	10	...........
	14	0.2	7.23636E-001	5.99052E-003	0.00000E+000	4.33495E-003	3.59960E-001	-1.12055E+000	3.57730E+000	10	...........
	15	0.213333	7.30117E-001	5.99279E-003	0.00000E+000	4.37544E-003	3.59960E-001	-1.12658E+000	3.57730E+000	10	...........
	16	0.226667	7.36598E-001	5.99473E-003	0.00000E+000	4.41571E-003	3.59960E-001	-1.12851E+000	3.57730E+000	10	...........
	17	0.24	7.43053E-001	5.99426E-003	0.00000E+000	4.45405E-003	3.59960E-001	-1.12049E+000	3.57730E+000	10	...........
	18	0.253333	7.49514E-001	5.99073E-003	0.00000E+000	4.49013E-003	3.59960E-001	-1.12674E+000	3.57730E+000	10	...........
	19	0.266667	7.55931E-001	5.99415E-003	0.00000E+000	4.53116E-003	3.59960E-001	-1.12854E+000	3.57730E+000	10	...........
	20	0.28	7.62319E-001	5.99617E-003	0.00000E+000	4.57099E-003	3.59960E-001	-1.12021E+000	3.57730E+000	10	...........
	21	0.293333	7.68691E-001	5.99389E-003	0.00000E+000	4.60745E-003	3.59960E-001	-1.12636E+000	3.57730E+000	10	...........
	22	0.306667	7.75116E-001	5.99500E-003	0.00000E+000	4.64682E-003	3.59960E-001	-1.12814E+000	3.57730E+000	10	...........
	23	0.32	7.81509E-001	5.99592E-003	0.00000E+000	4.68587E-003	3.59960E-001	-1.12013E+000	3.57730E+000	10	...........
	24	0.333333	7.87862E-001	5.99720E-003	0.00000E+000	4.72497E-003	3.59960E-001	-1.12634E+000	3.57730E+000	10	...........
	25	0.346667	7.94224E-001	5.99803E-003	0.00000E+000	4.76378E-003	3.59960E-001	-1.12794E+000	3.57730E+000	10	...........
	26	0.36	8.00546E-001	5.99506E-003	0.00000E+000	4.79933E-003	3.59960E-001	-1.11995E+000	3.57730E+000	10	...........
	27	0.373333	8.06873E-001	5.99432E-003	0.00000E+000	4.83665E-003	3.59960E-001	-1.12636E+000	3.57730E+000	10	...........
	28	0.386667	8.13146E-001	5.99472E-003	0.00000E+000	4.87458E-003	3.59960E-001	-1.12800E+000	3.57730E+000	10	...........
	29	0.4	8.19463E-001	5.99548E-003	0.00000E+000	4.91308E-003	3.59960E-001	-1.12009E+000	3.57730E+000	10	...........
	30	0.413333	8.25727E-001	5.99490E-003	0.00000E+000	4.95015E-003	3.59960E-001	-1.12636E+000	3.57730E+000	10	...........
	31	0.426667	8.31981E-001	5.99220E-003	0.00000E+000	4.98539E-003	3.59960E-001	-1.12793E+000	3.57730E+000	10	...........
	32	0.44	8.38210E-001	5.98763E-003	0.00000E+000	5.01889E-003	3.59960E-001	-1.11997E+000	3.57730E+000	10	...........
	33	0.453333	8.44473E-001	5.99308E-003	0.00000E+000	5.06099E-003	3.59960E-001	-1.12640E+000	3.57730E+000	10	...........
	34	0.466667	8.50685E-001	5.99269E-003	0.00000E+000	5.09789E-003	3.59960E-001	-1.12768E+000	3.57730E+000	10	...........
	35	0.48	8.56835E-001	5.99216E-003	0.00000E+000	5.13429E-003	3.59960E-001	-1.12025E+000	3.57730E+000	10	...........
	36	0.493333	8.63016E-001	5.99819E-003	0.00000E+000	5.17654E-003	3.59960E-001	-1.12652E+000	3.57730E+000	10	...........
	37	0.506667	8.69177E-001	5.98836E-003	0.00000E+000	5.20494E-003	3.59960E-001	-1.12816E+000	3.57730E+000	10	...........
	38	0.52	8.75359E-001	5.99272E-003	0.00000E+000	5.24578E-003	3.59960E-001	-1.12039E+000	3.57730E+000	10	...........
	39	0.533333	8.81478E-001	5.99208E-003	0.00000E+000	5.28189E-003	3.59960E-001	-1.12675E+000	3.57730E+000	10	...........
	40	0.546667	8.87605E-001	5.99059E-003	0.00000E+000	5.31728E-003	3.59960E-001	-1.12834E+000	3.57730E+000	10	...........
	41	0.56	8.93650E-001	5.98889E-003	0.00000E+000	5.35197E-003	3.59960E-001	-1.12037E+000	3.57730E+000	10	...........
	42	0.573333	8.99713E-001	5.99396E-003	0.00000E+000	5.39284E-003	3.59960E-001	-1.12706E+000	3.57730E+000	10	...........
	43	0.586667	9.05783E-001	5.99750E-003	0.00000E+000	5.43244E-003	3.59960E-001	-1.12820E+000	3.57730E+000	10	...........
	44	0.6	9.11834E-001	5.99168E-003	0.00000E+000	5.46342E-003	3.59960E-001	-1.12043E+000	3.57730E+000	10	...........
	45	0.613333	9.17836E-001	5.99637E-003	0.00000E+000	5.50368E-003	3.59960E-001	-1.12672E+000	3.57730E+000	10	...........
	46	0.626667	9.23801E-001	5.99392E-003	0.00000E+000	5.53719E-003	3.59960E-001	-1.12788E+000	3.57730E+000	10	...........
	47	0.64	9.29724E-001	5.99430E-003	0.00000E+000	5.57305E-003	3.59960E-001	-1.12005E+000	3.57730E+000	10	...........
	48	0.653333	9.35559E-001	5.99587E-003	0.00000E+000	5.60949E-003	3.59960E-001	-1.12683E+000	3.57730E+000	10	...........
	49	0.666667	9.41382E-001	5.99985E-003	0.00000E+000	5.64815E-003	3.59960E-001	-1.12786E+000	3.57730E+000	10	...........
	50	0.68	9.47237E-001	5.99411E-003	0.00000E+000	5.67785E-003	3.59960E-001	-1.12015E+000	3.57730E+000	10	...........
	51	0.693333	9.52982E-001	5.99662E-003	0.00000E+000	5.71467E-003	3.59960E-001	-1.12669E+000	3.57730E+000	10	...........
	52	0.706667	9.58762E-001	5.99508E-003	0.00000E+000	5.74786E-003	3.59960E-001	-1.12760E+000	3.57730E+000	10	...........
	53	0.72	9.64447E-001	5.98918E-003	0.00000E+000	5.77625E-003	3.59960E-001	-1.12006E+000	3.57730E+000	10	...........
	54	0.733333	9.70135E-001	5.99473E-003	0.00000E+000	5.81570E-003	3.59960E-001	-1.12671E+000	3.57730E+000	10	...........
	55	0.746667	9.75779E-001	5.99407E-003	0.00000E+000	5.84889E-003	3.59960E-001	-1.12770E+000	3.57730E+000	10	...........
	56	0.76	9.81362E-001	5.99408E-003	0.00000E+000	5.88237E-003	3.59960E-001	-1.11974E+000	3.57730E+000	10	...........
	57	0.773333	9.86852E-001	5.99253E-003	0.00000E+000	5.91374E-003	3.59960E-001	-1.12662E+000	3.57800E+000	10	...........
	58	0.786667	9.92376E-001	5.99158E-003	0.00000E+000	5.94590E-003	3.59960E-001	-1.12758E+000	3.57800E+000	10	...........
	59	0.8	9.97858E-001	5.99497E-003	0.00000E+000	5.98213E-003	3.59960E-001	-1.11981E+000	3.57800E+000	10	...........
STARTTIMEOFFSET	QUANT	685.1767	Start Time Offset (s)