Folder: Tesis/Data/CV_CRGO300517_1/PWRCCD_CRGO300517_1/CHARGE_DISCHARGE (part 181)

File: CHARGE_#368.DTA
EXPLAIN
TAG	PWR800_CHARGE
TITLE	LABEL	PWR Cyclic Charge Discharge (Cell) - Charge Step	Test &Identifier
DATE	LABEL	22-6-2017	Date
TIME	LABEL	15:50:42	Time
NOTES	NOTES	3	&Notes...
	supercap test cell
	0.6mg
	6M KOH
PSTAT	PSTAT	IFC5000-01520	Potentiostat
CAPACITY	QUANT	1.00000E-003	Capacity (A-hr)
CELLTYPE	SELECTOR	1	&Cell Type
WORKINGCONNECTION	SELECTOR	0	&Working Lead
MAXCHARGETIME	VARIABLEANDUNITS	1.00000E+002	s	1.00000E+002	second(s)	Max &Charge Time
CHARGECURRENT	QUANT	6.00000E-003	&Charge Current (A)
VOLTAGEFINISH	TWOPARAM	F	1.00000E-003	3.60000E+003	&Voltage Finish	 I (A) < 	Max Time(s)
SAMPLETIME	QUANT	1.00000E-002	Sa&mple Period (s)
CHARGESTOPAT1	MULTIPARAM	4	1.00000E+000	Charge Stop At &1	Voltage > Limit	V
CHARGESTOPAT2	MULTIPARAM	0	0.00000E+000	Charge Stop At &2	None	N/A
AESBHCSELECTOR	TOGGLE	F	Save Both Half Cells
IRCOMP	TOGGLE	F	IR &Measure
EOC	QUANT	0	Open Circuit (V)
SEQUENCER	TOGGLE	TRUE	Run as Sequence
PSTATMODEL	IQUANT	53	Pstat Model
PSTATSECTION	LABEL	IFC5000-01520	Pstat Section
PSTATSERIALNO	LABEL	01520	Pstat Serial Number
CTRLMODE	IQUANT	0	Control Mode
ELECTROMETER	IQUANT	1	RE=0 or CS=1
IESTAB	IQUANT	0	I/E Stability
CASPEED	IQUANT	4	Control Amp Speed
CONVENTION	IQUANT	1	Current Convention
ICHRANGE	IQUANT	2	Ich Range
ICHRANGEMODE	TOGGLE	T	Ich Auto Range
ICHOFFSETENABLE	TOGGLE	F	Ich Offset Enable
ICHOFFSET	QUANT	0	Ich Offset (V)
ICHFILTER	IQUANT	1	Ich Filter
VCHRANGE	IQUANT	2	Vch Range
VCHRANGEMODE	TOGGLE	T	Vch Auto Range
VCHOFFSETENABLE	TOGGLE	F	Vch Offset Enable
VCHOFFSET	QUANT	0	Vch Offset (V)
VCHFILTER	IQUANT	1	Vch Filter
IERANGELOWERLIMIT	IQUANT	9	I/E Range Lower Limit
IERANGEMODE	TOGGLE	F	I/E AutoRange
IERANGE	IQUANT	10	I/E Range
ACHSELECT	IQUANT	1	Ach Select
ACHRANGE	IQUANT	2	Ach Range
ACHOFFSETENABLE	TOGGLE	F	Ach Offset Enable
ACHOFFSET	QUANT	0	Ach Offset (V)
ACHFILTER	IQUANT	1	Ach Filter
CABLEID	IQUANT	14	Cable ID
DCCALDATE	LABEL	20-10-2016	DC Calibration Date
ACCALDATE	LABEL	12/3/2015	AC Calibration Date
FRAMEWORKVERSION	QUANT	7.01	Framework Version
INSTRUMENTVERSION	LABEL	4.00	Instrument Version
CURVE	TABLE	61
	Pt	T	Vf	Im	Vu	Pwr	Sig	Ach	Temp	IERange	Over
	#	s	V	A	V	W	V	V	deg C	#	bits
	0	0.013333	6.22556E-001	5.99684E-003	0.00000E+000	3.73337E-003	3.59960E-001	-1.11959E+000	3.57702E+000	10	...........
	1	0.026667	6.31249E-001	5.99078E-003	0.00000E+000	3.78167E-003	3.59960E-001	-1.12804E+000	3.57680E+000	10	...........
	2	0.04	6.39262E-001	5.99189E-003	0.00000E+000	3.83039E-003	3.59960E-001	-1.12539E+000	3.57680E+000	10	...........
	3	0.053333	6.46861E-001	5.99517E-003	0.00000E+000	3.87804E-003	3.59960E-001	-1.11935E+000	3.57680E+000	10	...........
	4	0.066667	6.54190E-001	5.99561E-003	0.00000E+000	3.92227E-003	3.59960E-001	-1.12799E+000	3.57680E+000	10	...........
	5	0.08	6.61336E-001	5.99740E-003	0.00000E+000	3.96630E-003	3.59960E-001	-1.12555E+000	3.57680E+000	10	...........
	6	0.093333	6.68386E-001	5.99297E-003	0.00000E+000	4.00562E-003	3.59960E-001	-1.11947E+000	3.57680E+000	10	...........
	7	0.106667	6.75214E-001	5.99298E-003	0.00000E+000	4.04654E-003	3.59960E-001	-1.12802E+000	3.57680E+000	10	...........
	8	0.12	6.81989E-001	5.99171E-003	0.00000E+000	4.08628E-003	3.59960E-001	-1.12541E+000	3.57680E+000	10	...........
	9	0.133333	6.88733E-001	5.99697E-003	0.00000E+000	4.13031E-003	3.59960E-001	-1.11951E+000	3.57680E+000	10	...........
	10	0.146667	6.95430E-001	5.99559E-003	0.00000E+000	4.16951E-003	3.59960E-001	-1.12815E+000	3.57680E+000	10	...........
	11	0.16	7.02044E-001	5.99507E-003	0.00000E+000	4.20881E-003	3.59960E-001	-1.12531E+000	3.57680E+000	10	...........
	12	0.173333	7.08576E-001	5.99199E-003	0.00000E+000	4.24578E-003	3.59960E-001	-1.11940E+000	3.57680E+000	10	...........
	13	0.186667	7.15135E-001	5.98987E-003	0.00000E+000	4.28357E-003	3.59960E-001	-1.12792E+000	3.57680E+000	10	...........
	14	0.2	7.21715E-001	5.99410E-003	0.00000E+000	4.32603E-003	3.59960E-001	-1.12508E+000	3.57680E+000	10	...........
	15	0.213333	7.28186E-001	5.99328E-003	0.00000E+000	4.36422E-003	3.59960E-001	-1.11912E+000	3.57680E+000	10	...........
	16	0.226667	7.34585E-001	5.99334E-003	0.00000E+000	4.40262E-003	3.59960E-001	-1.12767E+000	3.57680E+000	10	...........
	17	0.24	7.41021E-001	5.99644E-003	0.00000E+000	4.44349E-003	3.59960E-001	-1.12482E+000	3.57680E+000	10	...........
	18	0.253333	7.47449E-001	5.99396E-003	0.00000E+000	4.48018E-003	3.59960E-001	-1.11890E+000	3.57680E+000	10	...........
	19	0.266667	7.53867E-001	5.99334E-003	0.00000E+000	4.51818E-003	3.59960E-001	-1.12775E+000	3.57680E+000	10	...........
	20	0.28	7.60267E-001	5.99212E-003	0.00000E+000	4.55561E-003	3.59960E-001	-1.12481E+000	3.57680E+000	10	...........
	21	0.293333	7.66598E-001	5.99487E-003	0.00000E+000	4.59565E-003	3.59960E-001	-1.11911E+000	3.57680E+000	10	...........
	22	0.306667	7.73005E-001	5.99442E-003	0.00000E+000	4.63371E-003	3.59960E-001	-1.12759E+000	3.57680E+000	10	...........
	23	0.32	7.79344E-001	5.99439E-003	0.00000E+000	4.67169E-003	3.59960E-001	-1.12475E+000	3.57680E+000	10	...........
	24	0.333333	7.85681E-001	5.99539E-003	0.00000E+000	4.71046E-003	3.59960E-001	-1.11908E+000	3.57680E+000	10	...........
	25	0.346667	7.91986E-001	5.99447E-003	0.00000E+000	4.74754E-003	3.59960E-001	-1.12776E+000	3.57680E+000	10	...........
	26	0.36	7.98324E-001	5.99270E-003	0.00000E+000	4.78412E-003	3.59960E-001	-1.12457E+000	3.57680E+000	10	...........
	27	0.373333	8.04602E-001	5.99520E-003	0.00000E+000	4.82375E-003	3.59960E-001	-1.11876E+000	3.57680E+000	10	...........
	28	0.386667	8.10890E-001	5.99670E-003	0.00000E+000	4.86267E-003	3.59960E-001	-1.12760E+000	3.57680E+000	10	...........
	29	0.4	8.17188E-001	5.99517E-003	0.00000E+000	4.89918E-003	3.59960E-001	-1.12460E+000	3.57680E+000	10	...........
	30	0.413333	8.23436E-001	5.99794E-003	0.00000E+000	4.93892E-003	3.59960E-001	-1.11908E+000	3.57680E+000	10	...........
	31	0.426667	8.29699E-001	5.99037E-003	0.00000E+000	4.97020E-003	3.59960E-001	-1.12774E+000	3.57680E+000	10	...........
	32	0.44	8.35920E-001	5.99499E-003	0.00000E+000	5.01133E-003	3.59960E-001	-1.12485E+000	3.57680E+000	10	...........
	33	0.453333	8.42143E-001	5.99319E-003	0.00000E+000	5.04712E-003	3.59960E-001	-1.11904E+000	3.57680E+000	10	...........
	34	0.466667	8.48362E-001	5.99139E-003	0.00000E+000	5.08287E-003	3.59960E-001	-1.12786E+000	3.57680E+000	10	...........
	35	0.48	8.54558E-001	5.99729E-003	0.00000E+000	5.12503E-003	3.59960E-001	-1.12477E+000	3.57680E+000	10	...........
	36	0.493333	8.60744E-001	5.99074E-003	0.00000E+000	5.15649E-003	3.59960E-001	-1.11884E+000	3.57680E+000	10	...........
	37	0.506667	8.66919E-001	5.99519E-003	0.00000E+000	5.19734E-003	3.59960E-001	-1.12779E+000	3.57680E+000	10	...........
	38	0.52	8.73087E-001	5.99672E-003	0.00000E+000	5.23566E-003	3.59960E-001	-1.12458E+000	3.57680E+000	10	...........
	39	0.533333	8.79208E-001	5.99611E-003	0.00000E+000	5.27183E-003	3.59960E-001	-1.11866E+000	3.57680E+000	10	...........
	40	0.546667	8.85307E-001	5.99497E-003	0.00000E+000	5.30739E-003	3.59960E-001	-1.12766E+000	3.57680E+000	10	...........
	41	0.56	8.91419E-001	5.99285E-003	0.00000E+000	5.34214E-003	3.59960E-001	-1.12432E+000	3.57680E+000	10	...........
	42	0.573333	8.97449E-001	5.99502E-003	0.00000E+000	5.38022E-003	3.59960E-001	-1.11873E+000	3.57680E+000	10	...........
	43	0.586667	9.03480E-001	5.98834E-003	0.00000E+000	5.41034E-003	3.59960E-001	-1.12764E+000	3.57680E+000	10	...........
	44	0.6	9.09514E-001	5.99355E-003	0.00000E+000	5.45122E-003	3.59960E-001	-1.12436E+000	3.57680E+000	10	...........
	45	0.613333	9.15470E-001	5.99638E-003	0.00000E+000	5.48951E-003	3.59960E-001	-1.11874E+000	3.57680E+000	10	...........
	46	0.626667	9.21452E-001	5.99510E-003	0.00000E+000	5.52419E-003	3.59960E-001	-1.12741E+000	3.57680E+000	10	...........
	47	0.64	9.27376E-001	5.99365E-003	0.00000E+000	5.55836E-003	3.59960E-001	-1.12417E+000	3.57680E+000	10	...........
	48	0.653333	9.33253E-001	5.99669E-003	0.00000E+000	5.59643E-003	3.59960E-001	-1.11877E+000	3.57680E+000	10	...........
	49	0.666667	9.39119E-001	5.99095E-003	0.00000E+000	5.62622E-003	3.59960E-001	-1.12752E+000	3.57680E+000	10	...........
	50	0.68	9.44909E-001	5.99492E-003	0.00000E+000	5.66465E-003	3.59960E-001	-1.12413E+000	3.57680E+000	10	...........
	51	0.693333	9.50743E-001	5.99760E-003	0.00000E+000	5.70218E-003	3.59960E-001	-1.11852E+000	3.57680E+000	10	...........
	52	0.706667	9.56465E-001	5.99511E-003	0.00000E+000	5.73411E-003	3.59960E-001	-1.12723E+000	3.57680E+000	10	...........
	53	0.72	9.62201E-001	5.99157E-003	0.00000E+000	5.76510E-003	3.59960E-001	-1.12395E+000	3.57680E+000	10	...........
	54	0.733333	9.67933E-001	5.99707E-003	0.00000E+000	5.80476E-003	3.59960E-001	-1.11841E+000	3.57680E+000	10	...........
	55	0.746667	9.73595E-001	5.99463E-003	0.00000E+000	5.83634E-003	3.59960E-001	-1.12758E+000	3.57680E+000	10	...........
	56	0.76	9.79189E-001	5.99306E-003	0.00000E+000	5.86834E-003	3.59960E-001	-1.12407E+000	3.57680E+000	10	...........
	57	0.773333	9.84738E-001	5.99375E-003	0.00000E+000	5.90228E-003	3.59960E-001	-1.11848E+000	3.57680E+000	10	...........
	58	0.786667	9.90224E-001	5.98868E-003	0.00000E+000	5.93014E-003	3.59960E-001	-1.12738E+000	3.57680E+000	10	...........
	59	0.8	9.95709E-001	5.99624E-003	0.00000E+000	5.97051E-003	3.59960E-001	-1.12412E+000	3.57680E+000	10	...........
	60	0.805	9.99474E-001	5.99796E-003	0.00000E+000	5.99481E-003	3.59960E-001	-1.12613E+000	3.57680E+000	10	...........
STARTTIMEOFFSET	QUANT	651.6265	Start Time Offset (s)

File: CHARGE_#369.DTA
EXPLAIN
TAG	PWR800_CHARGE
TITLE	LABEL	PWR Cyclic Charge Discharge (Cell) - Charge Step	Test &Identifier
DATE	LABEL	22-6-2017	Date
TIME	LABEL	15:50:44	Time
NOTES	NOTES	3	&Notes...
	supercap test cell
	0.6mg
	6M KOH
PSTAT	PSTAT	IFC5000-01520	Potentiostat
CAPACITY	QUANT	1.00000E-003	Capacity (A-hr)
CELLTYPE	SELECTOR	1	&Cell Type
WORKINGCONNECTION	SELECTOR	0	&Working Lead
MAXCHARGETIME	VARIABLEANDUNITS	1.00000E+002	s	1.00000E+002	second(s)	Max &Charge Time
CHARGECURRENT	QUANT	6.00000E-003	&Charge Current (A)
VOLTAGEFINISH	TWOPARAM	F	1.00000E-003	3.60000E+003	&Voltage Finish	 I (A) < 	Max Time(s)
SAMPLETIME	QUANT	1.00000E-002	Sa&mple Period (s)
CHARGESTOPAT1	MULTIPARAM	4	1.00000E+000	Charge Stop At &1	Voltage > Limit	V
CHARGESTOPAT2	MULTIPARAM	0	0.00000E+000	Charge Stop At &2	None	N/A
AESBHCSELECTOR	TOGGLE	F	Save Both Half Cells
IRCOMP	TOGGLE	F	IR &Measure
EOC	QUANT	0	Open Circuit (V)
SEQUENCER	TOGGLE	TRUE	Run as Sequence
PSTATMODEL	IQUANT	53	Pstat Model
PSTATSECTION	LABEL	IFC5000-01520	Pstat Section
PSTATSERIALNO	LABEL	01520	Pstat Serial Number
CTRLMODE	IQUANT	0	Control Mode
ELECTROMETER	IQUANT	1	RE=0 or CS=1
IESTAB	IQUANT	0	I/E Stability
CASPEED	IQUANT	4	Control Amp Speed
CONVENTION	IQUANT	1	Current Convention
ICHRANGE	IQUANT	2	Ich Range
ICHRANGEMODE	TOGGLE	T	Ich Auto Range
ICHOFFSETENABLE	TOGGLE	F	Ich Offset Enable
ICHOFFSET	QUANT	0	Ich Offset (V)
ICHFILTER	IQUANT	1	Ich Filter
VCHRANGE	IQUANT	2	Vch Range
VCHRANGEMODE	TOGGLE	T	Vch Auto Range
VCHOFFSETENABLE	TOGGLE	F	Vch Offset Enable
VCHOFFSET	QUANT	0	Vch Offset (V)
VCHFILTER	IQUANT	1	Vch Filter
IERANGELOWERLIMIT	IQUANT	9	I/E Range Lower Limit
IERANGEMODE	TOGGLE	F	I/E AutoRange
IERANGE	IQUANT	10	I/E Range
ACHSELECT	IQUANT	1	Ach Select
ACHRANGE	IQUANT	2	Ach Range
ACHOFFSETENABLE	TOGGLE	F	Ach Offset Enable
ACHOFFSET	QUANT	0	Ach Offset (V)
ACHFILTER	IQUANT	1	Ach Filter
CABLEID	IQUANT	14	Cable ID
DCCALDATE	LABEL	20-10-2016	DC Calibration Date
ACCALDATE	LABEL	12/3/2015	AC Calibration Date
FRAMEWORKVERSION	QUANT	7.01	Framework Version
INSTRUMENTVERSION	LABEL	4.00	Instrument Version
CURVE	TABLE	61
	Pt	T	Vf	Im	Vu	Pwr	Sig	Ach	Temp	IERange	Over
	#	s	V	A	V	W	V	V	deg C	#	bits
	0	0.013333	6.22882E-001	5.99807E-003	0.00000E+000	3.73609E-003	3.59960E-001	-1.12073E+000	3.57800E+000	10	...........
	1	0.026667	6.31568E-001	5.99106E-003	0.00000E+000	3.78376E-003	3.59960E-001	-1.12705E+000	3.57800E+000	10	...........
	2	0.04	6.39574E-001	5.99428E-003	0.00000E+000	3.83379E-003	3.59960E-001	-1.11670E+000	3.57800E+000	10	...........
	3	0.053333	6.47182E-001	5.98885E-003	0.00000E+000	3.87588E-003	3.59960E-001	-1.12009E+000	3.57800E+000	10	...........
	4	0.066667	6.54499E-001	5.99629E-003	0.00000E+000	3.92457E-003	3.59960E-001	-1.12662E+000	3.57800E+000	10	...........
	5	0.08	6.61609E-001	5.99813E-003	0.00000E+000	3.96842E-003	3.59960E-001	-1.11661E+000	3.57800E+000	10	...........
	6	0.093333	6.68618E-001	5.99290E-003	0.00000E+000	4.00696E-003	3.59960E-001	-1.12011E+000	3.57800E+000	10	...........
	7	0.106667	6.75463E-001	5.99428E-003	0.00000E+000	4.04891E-003	3.59960E-001	-1.12602E+000	3.57800E+000	10	...........
	8	0.12	6.82231E-001	5.99657E-003	0.00000E+000	4.09105E-003	3.59960E-001	-1.11632E+000	3.57800E+000	10	...........
	9	0.133333	6.88930E-001	5.98958E-003	0.00000E+000	4.12640E-003	3.59960E-001	-1.11980E+000	3.57800E+000	10	...........
	10	0.146667	6.95643E-001	5.99695E-003	0.00000E+000	4.17174E-003	3.59960E-001	-1.12607E+000	3.57800E+000	10	...........
	11	0.16	7.02238E-001	5.98899E-003	0.00000E+000	4.20570E-003	3.59960E-001	-1.11618E+000	3.57800E+000	10	...........
	12	0.173333	7.08763E-001	5.99576E-003	0.00000E+000	4.24957E-003	3.59960E-001	-1.11976E+000	3.57800E+000	10	...........
	13	0.186667	7.15306E-001	5.99917E-003	0.00000E+000	4.29125E-003	3.59960E-001	-1.12614E+000	3.57800E+000	10	...........
	14	0.2	7.21847E-001	5.99425E-003	0.00000E+000	4.32693E-003	3.59960E-001	-1.11645E+000	3.57800E+000	10	...........
	15	0.213333	7.28282E-001	5.99156E-003	0.00000E+000	4.36355E-003	3.59960E-001	-1.11998E+000	3.57800E+000	10	...........
	16	0.226667	7.34785E-001	5.99507E-003	0.00000E+000	4.40509E-003	3.59960E-001	-1.12599E+000	3.57800E+000	10	...........
	17	0.24	7.41206E-001	5.99861E-003	0.00000E+000	4.44620E-003	3.59960E-001	-1.11608E+000	3.57800E+000	10	...........
	18	0.253333	7.47596E-001	5.99473E-003	0.00000E+000	4.48163E-003	3.59960E-001	-1.11993E+000	3.57800E+000	10	...........
	19	0.266667	7.54028E-001	5.99660E-003	0.00000E+000	4.52160E-003	3.59960E-001	-1.12626E+000	3.57800E+000	10	...........
	20	0.28	7.60432E-001	5.99126E-003	0.00000E+000	4.55594E-003	3.59960E-001	-1.11644E+000	3.57800E+000	10	...........
	21	0.293333	7.66845E-001	5.99120E-003	0.00000E+000	4.59433E-003	3.59960E-001	-1.12004E+000	3.57800E+000	10	...........
	22	0.306667	7.73184E-001	5.99612E-003	0.00000E+000	4.63610E-003	3.59960E-001	-1.12612E+000	3.57800E+000	10	...........
	23	0.32	7.79496E-001	5.99366E-003	0.00000E+000	4.67203E-003	3.59960E-001	-1.11622E+000	3.57800E+000	10	...........
	24	0.333333	7.85875E-001	5.99508E-003	0.00000E+000	4.71139E-003	3.59960E-001	-1.12010E+000	3.57800E+000	10	...........
	25	0.346667	7.92212E-001	5.99694E-003	0.00000E+000	4.75085E-003	3.59960E-001	-1.12601E+000	3.57800E+000	10	...........
	26	0.36	7.98519E-001	5.99455E-003	0.00000E+000	4.78677E-003	3.59960E-001	-1.11614E+000	3.57800E+000	10	...........
	27	0.373333	8.04869E-001	5.99723E-003	0.00000E+000	4.82699E-003	3.59960E-001	-1.11941E+000	3.57800E+000	10	...........
	28	0.386667	8.11143E-001	5.99398E-003	0.00000E+000	4.86197E-003	3.59960E-001	-1.12541E+000	3.57800E+000	10	...........
	29	0.4	8.17433E-001	5.99790E-003	0.00000E+000	4.90288E-003	3.59960E-001	-1.11593E+000	3.57800E+000	10	...........
	30	0.413333	8.23684E-001	5.99398E-003	0.00000E+000	4.93714E-003	3.59960E-001	-1.11987E+000	3.57800E+000	10	...........
	31	0.426667	8.29931E-001	5.99745E-003	0.00000E+000	4.97747E-003	3.59960E-001	-1.12567E+000	3.57800E+000	10	...........
	32	0.44	8.36165E-001	5.99752E-003	0.00000E+000	5.01491E-003	3.59960E-001	-1.11589E+000	3.57800E+000	10	...........
	33	0.453333	8.42384E-001	5.99369E-003	0.00000E+000	5.04899E-003	3.59960E-001	-1.11962E+000	3.57800E+000	10	...........
	34	0.466667	8.48595E-001	5.99296E-003	0.00000E+000	5.08560E-003	3.59960E-001	-1.12573E+000	3.57800E+000	10	...........
	35	0.48	8.54788E-001	5.99823E-003	0.00000E+000	5.12722E-003	3.59960E-001	-1.11592E+000	3.57800E+000	10	...........
	36	0.493333	8.61006E-001	5.99453E-003	0.00000E+000	5.16133E-003	3.59960E-001	-1.11969E+000	3.57800E+000	10	...........
	37	0.506667	8.67152E-001	5.99320E-003	0.00000E+000	5.19701E-003	3.59960E-001	-1.12544E+000	3.57800E+000	10	...........
	38	0.52	8.73302E-001	5.99359E-003	0.00000E+000	5.23422E-003	3.59960E-001	-1.11576E+000	3.57800E+000	10	...........
	39	0.533333	8.79428E-001	5.99043E-003	0.00000E+000	5.26816E-003	3.59960E-001	-1.11994E+000	3.57800E+000	10	...........
	40	0.546667	8.85563E-001	5.99604E-003	0.00000E+000	5.30987E-003	3.59960E-001	-1.12559E+000	3.57800E+000	10	...........
	41	0.56	8.91618E-001	5.99944E-003	0.00000E+000	5.34921E-003	3.59960E-001	-1.11598E+000	3.57800E+000	10	...........
	42	0.573333	8.97707E-001	5.99008E-003	0.00000E+000	5.37734E-003	3.59960E-001	-1.11958E+000	3.57800E+000	10	...........
	43	0.586667	9.03737E-001	5.99729E-003	0.00000E+000	5.41997E-003	3.59960E-001	-1.12578E+000	3.57800E+000	10	...........
	44	0.6	9.09763E-001	5.99241E-003	0.00000E+000	5.45168E-003	3.59960E-001	-1.11620E+000	3.57800E+000	10	...........
	45	0.613333	9.15743E-001	5.99499E-003	0.00000E+000	5.48987E-003	3.59960E-001	-1.12003E+000	3.57895E+000	10	...........
	46	0.626667	9.21729E-001	5.99088E-003	0.00000E+000	5.52197E-003	3.59960E-001	-1.12595E+000	3.57990E+000	10	...........
	47	0.64	9.27687E-001	5.99282E-003	0.00000E+000	5.55946E-003	3.59960E-001	-1.11613E+000	3.57990E+000	10	...........
	48	0.653333	9.33584E-001	5.99482E-003	0.00000E+000	5.59667E-003	3.59960E-001	-1.12023E+000	3.57990E+000	10	...........
	49	0.666667	9.39417E-001	5.99156E-003	0.00000E+000	5.62857E-003	3.59960E-001	-1.12608E+000	3.57990E+000	10	...........
	50	0.68	9.45261E-001	5.99650E-003	0.00000E+000	5.66826E-003	3.59960E-001	-1.11627E+000	3.57990E+000	10	...........
	51	0.693333	9.51100E-001	5.99321E-003	0.00000E+000	5.70014E-003	3.59960E-001	-1.11978E+000	3.57990E+000	10	...........
	52	0.706667	9.56801E-001	5.99418E-003	0.00000E+000	5.73523E-003	3.59960E-001	-1.12549E+000	3.57990E+000	10	...........
	53	0.72	9.62493E-001	5.99525E-003	0.00000E+000	5.77039E-003	3.59960E-001	-1.11590E+000	3.57990E+000	10	...........
	54	0.733333	9.68156E-001	5.99550E-003	0.00000E+000	5.80458E-003	3.59960E-001	-1.12039E+000	3.57990E+000	10	...........
	55	0.746667	9.73799E-001	5.99279E-003	0.00000E+000	5.83577E-003	3.59960E-001	-1.12581E+000	3.57990E+000	10	...........
	56	0.76	9.79394E-001	5.99786E-003	0.00000E+000	5.87427E-003	3.59960E-001	-1.11622E+000	3.57990E+000	10	...........
	57	0.773333	9.84993E-001	5.99598E-003	0.00000E+000	5.90600E-003	3.59960E-001	-1.12033E+000	3.57990E+000	10	...........
	58	0.786667	9.90462E-001	5.99266E-003	0.00000E+000	5.93551E-003	3.59960E-001	-1.12591E+000	3.57990E+000	10	...........
	59	0.8	9.95940E-001	5.99308E-003	0.00000E+000	5.96875E-003	3.59960E-001	-1.11661E+000	3.57990E+000	10	...........
	60	0.805	9.99724E-001	5.99810E-003	0.00000E+000	5.99645E-003	3.59960E-001	-1.13096E+000	3.57990E+000	10	...........
STARTTIMEOFFSET	QUANT	653.2281	Start Time Offset (s)