Folder: Tesis/Data/CV_CRGO300517_1/PWRCCD_CRGO300517_1/CHARGE_DISCHARGE (part 198)

File: CHARGE_#404.DTA
EXPLAIN
TAG	PWR800_CHARGE
TITLE	LABEL	PWR Cyclic Charge Discharge (Cell) - Charge Step	Test &Identifier
DATE	LABEL	22-6-2017	Date
TIME	LABEL	15:52:08	Time
NOTES	NOTES	3	&Notes...
	supercap test cell
	0.6mg
	6M KOH
PSTAT	PSTAT	IFC5000-01520	Potentiostat
CAPACITY	QUANT	1.00000E-003	Capacity (A-hr)
CELLTYPE	SELECTOR	1	&Cell Type
WORKINGCONNECTION	SELECTOR	0	&Working Lead
MAXCHARGETIME	VARIABLEANDUNITS	1.00000E+002	s	1.00000E+002	second(s)	Max &Charge Time
CHARGECURRENT	QUANT	6.00000E-003	&Charge Current (A)
VOLTAGEFINISH	TWOPARAM	F	1.00000E-003	3.60000E+003	&Voltage Finish	 I (A) < 	Max Time(s)
SAMPLETIME	QUANT	1.00000E-002	Sa&mple Period (s)
CHARGESTOPAT1	MULTIPARAM	4	1.00000E+000	Charge Stop At &1	Voltage > Limit	V
CHARGESTOPAT2	MULTIPARAM	0	0.00000E+000	Charge Stop At &2	None	N/A
AESBHCSELECTOR	TOGGLE	F	Save Both Half Cells
IRCOMP	TOGGLE	F	IR &Measure
EOC	QUANT	0	Open Circuit (V)
SEQUENCER	TOGGLE	TRUE	Run as Sequence
PSTATMODEL	IQUANT	53	Pstat Model
PSTATSECTION	LABEL	IFC5000-01520	Pstat Section
PSTATSERIALNO	LABEL	01520	Pstat Serial Number
CTRLMODE	IQUANT	0	Control Mode
ELECTROMETER	IQUANT	1	RE=0 or CS=1
IESTAB	IQUANT	0	I/E Stability
CASPEED	IQUANT	4	Control Amp Speed
CONVENTION	IQUANT	1	Current Convention
ICHRANGE	IQUANT	2	Ich Range
ICHRANGEMODE	TOGGLE	T	Ich Auto Range
ICHOFFSETENABLE	TOGGLE	F	Ich Offset Enable
ICHOFFSET	QUANT	0	Ich Offset (V)
ICHFILTER	IQUANT	1	Ich Filter
VCHRANGE	IQUANT	2	Vch Range
VCHRANGEMODE	TOGGLE	T	Vch Auto Range
VCHOFFSETENABLE	TOGGLE	F	Vch Offset Enable
VCHOFFSET	QUANT	0	Vch Offset (V)
VCHFILTER	IQUANT	1	Vch Filter
IERANGELOWERLIMIT	IQUANT	9	I/E Range Lower Limit
IERANGEMODE	TOGGLE	F	I/E AutoRange
IERANGE	IQUANT	10	I/E Range
ACHSELECT	IQUANT	1	Ach Select
ACHRANGE	IQUANT	2	Ach Range
ACHOFFSETENABLE	TOGGLE	F	Ach Offset Enable
ACHOFFSET	QUANT	0	Ach Offset (V)
ACHFILTER	IQUANT	1	Ach Filter
CABLEID	IQUANT	14	Cable ID
DCCALDATE	LABEL	20-10-2016	DC Calibration Date
ACCALDATE	LABEL	12/3/2015	AC Calibration Date
FRAMEWORKVERSION	QUANT	7.01	Framework Version
INSTRUMENTVERSION	LABEL	4.00	Instrument Version
CURVE	TABLE	60
	Pt	T	Vf	Im	Vu	Pwr	Sig	Ach	Temp	IERange	Over
	#	s	V	A	V	W	V	V	deg C	#	bits
	0	0.013333	6.25249E-001	5.99554E-003	0.00000E+000	3.74871E-003	3.59960E-001	-1.12981E+000	3.57650E+000	10	...........
	1	0.026667	6.33975E-001	5.99410E-003	0.00000E+000	3.80011E-003	3.59960E-001	-1.12361E+000	3.57652E+000	10	...........
	2	0.04	6.42058E-001	5.99523E-003	0.00000E+000	3.84929E-003	3.59960E-001	-1.13232E+000	3.57670E+000	10	...........
	3	0.053333	6.49681E-001	5.98833E-003	0.00000E+000	3.89050E-003	3.59960E-001	-1.12976E+000	3.57670E+000	10	...........
	4	0.066667	6.57047E-001	5.99257E-003	0.00000E+000	3.93740E-003	3.59960E-001	-1.12386E+000	3.57670E+000	10	...........
	5	0.08	6.64221E-001	5.99470E-003	0.00000E+000	3.98181E-003	3.59960E-001	-1.13245E+000	3.57670E+000	10	...........
	6	0.093333	6.71234E-001	5.99642E-003	0.00000E+000	4.02500E-003	3.59960E-001	-1.12949E+000	3.57670E+000	10	...........
	7	0.106667	6.78184E-001	5.99442E-003	0.00000E+000	4.06532E-003	3.59960E-001	-1.12377E+000	3.57670E+000	10	...........
	8	0.12	6.85021E-001	5.99062E-003	0.00000E+000	4.10370E-003	3.59960E-001	-1.13244E+000	3.57670E+000	10	...........
	9	0.133333	6.91744E-001	5.99490E-003	0.00000E+000	4.14693E-003	3.59960E-001	-1.12950E+000	3.57670E+000	10	...........
	10	0.146667	6.98453E-001	5.99692E-003	0.00000E+000	4.18856E-003	3.59960E-001	-1.12357E+000	3.57670E+000	10	...........
	11	0.16	7.05075E-001	5.99079E-003	0.00000E+000	4.22395E-003	3.59960E-001	-1.13210E+000	3.57670E+000	10	...........
	12	0.173333	7.11637E-001	5.99313E-003	0.00000E+000	4.26494E-003	3.59960E-001	-1.12873E+000	3.57670E+000	10	...........
	13	0.186667	7.18282E-001	5.99214E-003	0.00000E+000	4.30405E-003	3.59960E-001	-1.12302E+000	3.57670E+000	10	...........
	14	0.2	7.24844E-001	5.99445E-003	0.00000E+000	4.34504E-003	3.59960E-001	-1.13210E+000	3.57670E+000	10	...........
	15	0.213333	7.31332E-001	5.99254E-003	0.00000E+000	4.38254E-003	3.59960E-001	-1.12865E+000	3.57670E+000	10	...........
	16	0.226667	7.37857E-001	5.99181E-003	0.00000E+000	4.42110E-003	3.59960E-001	-1.12289E+000	3.57670E+000	10	...........
	17	0.24	7.44371E-001	5.99697E-003	0.00000E+000	4.46397E-003	3.59960E-001	-1.13158E+000	3.57670E+000	10	...........
	18	0.253333	7.50811E-001	5.99411E-003	0.00000E+000	4.50044E-003	3.59960E-001	-1.12826E+000	3.57670E+000	10	...........
	19	0.266667	7.57238E-001	5.99260E-003	0.00000E+000	4.53783E-003	3.59960E-001	-1.12306E+000	3.57670E+000	10	...........
	20	0.28	7.63635E-001	5.98940E-003	0.00000E+000	4.57372E-003	3.59960E-001	-1.13173E+000	3.57670E+000	10	...........
	21	0.293333	7.70080E-001	5.99104E-003	0.00000E+000	4.61358E-003	3.59960E-001	-1.12824E+000	3.57670E+000	10	...........
	22	0.306667	7.76449E-001	5.99554E-003	0.00000E+000	4.65523E-003	3.59960E-001	-1.12256E+000	3.57670E+000	10	...........
	23	0.32	7.82851E-001	5.99430E-003	0.00000E+000	4.69265E-003	3.59960E-001	-1.13150E+000	3.57670E+000	10	...........
	24	0.333333	7.89206E-001	5.99847E-003	0.00000E+000	4.73403E-003	3.59960E-001	-1.12814E+000	3.57670E+000	10	...........
	25	0.346667	7.95578E-001	5.99053E-003	0.00000E+000	4.76593E-003	3.59960E-001	-1.12251E+000	3.57670E+000	10	...........
	26	0.36	8.01907E-001	5.99172E-003	0.00000E+000	4.80480E-003	3.59960E-001	-1.13137E+000	3.57670E+000	10	...........
	27	0.373333	8.08211E-001	5.99203E-003	0.00000E+000	4.84282E-003	3.59960E-001	-1.12771E+000	3.57670E+000	10	...........
	28	0.386667	8.14554E-001	5.99187E-003	0.00000E+000	4.88070E-003	3.59960E-001	-1.12263E+000	3.57670E+000	10	...........
	29	0.4	8.20909E-001	5.99473E-003	0.00000E+000	4.92113E-003	3.59960E-001	-1.13159E+000	3.57670E+000	10	...........
	30	0.413333	8.27199E-001	5.99092E-003	0.00000E+000	4.95568E-003	3.59960E-001	-1.12777E+000	3.57670E+000	10	...........
	31	0.426667	8.33449E-001	5.99362E-003	0.00000E+000	4.99538E-003	3.59960E-001	-1.12225E+000	3.57670E+000	10	...........
	32	0.44	8.39712E-001	5.99517E-003	0.00000E+000	5.03422E-003	3.59960E-001	-1.13133E+000	3.57670E+000	10	...........
	33	0.453333	8.45991E-001	5.99315E-003	0.00000E+000	5.07015E-003	3.59960E-001	-1.12748E+000	3.57670E+000	10	...........
	34	0.466667	8.52184E-001	5.99519E-003	0.00000E+000	5.10901E-003	3.59960E-001	-1.12219E+000	3.57670E+000	10	...........
	35	0.48	8.58385E-001	5.99427E-003	0.00000E+000	5.14540E-003	3.59960E-001	-1.13094E+000	3.57670E+000	10	...........
	36	0.493333	8.64591E-001	5.99303E-003	0.00000E+000	5.18152E-003	3.59960E-001	-1.12708E+000	3.57670E+000	10	...........
	37	0.506667	8.70791E-001	5.98876E-003	0.00000E+000	5.21496E-003	3.59960E-001	-1.12171E+000	3.57670E+000	10	...........
	38	0.52	8.76974E-001	5.99758E-003	0.00000E+000	5.25972E-003	3.59960E-001	-1.13110E+000	3.57670E+000	10	...........
	39	0.533333	8.83126E-001	5.99543E-003	0.00000E+000	5.29472E-003	3.59960E-001	-1.12703E+000	3.57670E+000	10	...........
	40	0.546667	8.89223E-001	5.99286E-003	0.00000E+000	5.32899E-003	3.59960E-001	-1.12164E+000	3.57670E+000	10	...........
	41	0.56	8.95276E-001	5.99296E-003	0.00000E+000	5.36535E-003	3.59960E-001	-1.13078E+000	3.57670E+000	10	...........
	42	0.573333	9.01343E-001	5.99244E-003	0.00000E+000	5.40124E-003	3.59960E-001	-1.12671E+000	3.57670E+000	10	...........
	43	0.586667	9.07388E-001	5.99556E-003	0.00000E+000	5.44031E-003	3.59960E-001	-1.12153E+000	3.57670E+000	10	...........
	44	0.6	9.13419E-001	5.99535E-003	0.00000E+000	5.47627E-003	3.59960E-001	-1.13104E+000	3.57670E+000	10	...........
	45	0.613333	9.19438E-001	5.99331E-003	0.00000E+000	5.51048E-003	3.59960E-001	-1.12673E+000	3.57670E+000	10	...........
	46	0.626667	9.25435E-001	5.99932E-003	0.00000E+000	5.55198E-003	3.59960E-001	-1.12167E+000	3.57670E+000	10	...........
	47	0.64	9.31314E-001	5.99476E-003	0.00000E+000	5.58300E-003	3.59960E-001	-1.13097E+000	3.57670E+000	10	...........
	48	0.653333	9.37173E-001	5.99834E-003	0.00000E+000	5.62148E-003	3.59960E-001	-1.12673E+000	3.57670E+000	10	...........
	49	0.666667	9.43037E-001	5.99651E-003	0.00000E+000	5.65493E-003	3.59960E-001	-1.12168E+000	3.57670E+000	10	...........
	50	0.68	9.48891E-001	5.99398E-003	0.00000E+000	5.68763E-003	3.59960E-001	-1.13098E+000	3.57670E+000	10	...........
	51	0.693333	9.54672E-001	5.99513E-003	0.00000E+000	5.72338E-003	3.59960E-001	-1.12662E+000	3.57670E+000	10	...........
	52	0.706667	9.60392E-001	5.99696E-003	0.00000E+000	5.75943E-003	3.59960E-001	-1.12161E+000	3.57670E+000	10	...........
	53	0.72	9.66059E-001	5.99219E-003	0.00000E+000	5.78880E-003	3.59960E-001	-1.13117E+000	3.57670E+000	10	...........
	54	0.733333	9.71746E-001	5.99135E-003	0.00000E+000	5.82207E-003	3.59960E-001	-1.12672E+000	3.57670E+000	10	...........
	55	0.746667	9.77382E-001	5.99268E-003	0.00000E+000	5.85713E-003	3.59960E-001	-1.12164E+000	3.57670E+000	10	...........
	56	0.76	9.82900E-001	5.99217E-003	0.00000E+000	5.88971E-003	3.59960E-001	-1.13108E+000	3.57670E+000	10	...........
	57	0.773333	9.88456E-001	5.99205E-003	0.00000E+000	5.92288E-003	3.59960E-001	-1.12650E+000	3.57670E+000	10	...........
	58	0.786667	9.93947E-001	5.99093E-003	0.00000E+000	5.95467E-003	3.59960E-001	-1.12145E+000	3.57670E+000	10	...........
	59	0.796667	9.98749E-001	5.98991E-003	0.00000E+000	5.98242E-003	3.59960E-001	-1.13509E+000	3.57670E+000	10	...........
STARTTIMEOFFSET	QUANT	709.0167	Start Time Offset (s)

File: CHARGE_#405.DTA
EXPLAIN
TAG	PWR800_CHARGE
TITLE	LABEL	PWR Cyclic Charge Discharge (Cell) - Charge Step	Test &Identifier
DATE	LABEL	22-6-2017	Date
TIME	LABEL	15:52:10	Time
NOTES	NOTES	3	&Notes...
	supercap test cell
	0.6mg
	6M KOH
PSTAT	PSTAT	IFC5000-01520	Potentiostat
CAPACITY	QUANT	1.00000E-003	Capacity (A-hr)
CELLTYPE	SELECTOR	1	&Cell Type
WORKINGCONNECTION	SELECTOR	0	&Working Lead
MAXCHARGETIME	VARIABLEANDUNITS	1.00000E+002	s	1.00000E+002	second(s)	Max &Charge Time
CHARGECURRENT	QUANT	6.00000E-003	&Charge Current (A)
VOLTAGEFINISH	TWOPARAM	F	1.00000E-003	3.60000E+003	&Voltage Finish	 I (A) < 	Max Time(s)
SAMPLETIME	QUANT	1.00000E-002	Sa&mple Period (s)
CHARGESTOPAT1	MULTIPARAM	4	1.00000E+000	Charge Stop At &1	Voltage > Limit	V
CHARGESTOPAT2	MULTIPARAM	0	0.00000E+000	Charge Stop At &2	None	N/A
AESBHCSELECTOR	TOGGLE	F	Save Both Half Cells
IRCOMP	TOGGLE	F	IR &Measure
EOC	QUANT	0	Open Circuit (V)
SEQUENCER	TOGGLE	TRUE	Run as Sequence
PSTATMODEL	IQUANT	53	Pstat Model
PSTATSECTION	LABEL	IFC5000-01520	Pstat Section
PSTATSERIALNO	LABEL	01520	Pstat Serial Number
CTRLMODE	IQUANT	0	Control Mode
ELECTROMETER	IQUANT	1	RE=0 or CS=1
IESTAB	IQUANT	0	I/E Stability
CASPEED	IQUANT	4	Control Amp Speed
CONVENTION	IQUANT	1	Current Convention
ICHRANGE	IQUANT	2	Ich Range
ICHRANGEMODE	TOGGLE	T	Ich Auto Range
ICHOFFSETENABLE	TOGGLE	F	Ich Offset Enable
ICHOFFSET	QUANT	0	Ich Offset (V)
ICHFILTER	IQUANT	1	Ich Filter
VCHRANGE	IQUANT	2	Vch Range
VCHRANGEMODE	TOGGLE	T	Vch Auto Range
VCHOFFSETENABLE	TOGGLE	F	Vch Offset Enable
VCHOFFSET	QUANT	0	Vch Offset (V)
VCHFILTER	IQUANT	1	Vch Filter
IERANGELOWERLIMIT	IQUANT	9	I/E Range Lower Limit
IERANGEMODE	TOGGLE	F	I/E AutoRange
IERANGE	IQUANT	10	I/E Range
ACHSELECT	IQUANT	1	Ach Select
ACHRANGE	IQUANT	2	Ach Range
ACHOFFSETENABLE	TOGGLE	F	Ach Offset Enable
ACHOFFSET	QUANT	0	Ach Offset (V)
ACHFILTER	IQUANT	1	Ach Filter
CABLEID	IQUANT	14	Cable ID
DCCALDATE	LABEL	20-10-2016	DC Calibration Date
ACCALDATE	LABEL	12/3/2015	AC Calibration Date
FRAMEWORKVERSION	QUANT	7.01	Framework Version
INSTRUMENTVERSION	LABEL	4.00	Instrument Version
CURVE	TABLE	60
	Pt	T	Vf	Im	Vu	Pwr	Sig	Ach	Temp	IERange	Over
	#	s	V	A	V	W	V	V	deg C	#	bits
	0	0.013333	6.25522E-001	5.99272E-003	0.00000E+000	3.74857E-003	3.59960E-001	-1.13327E+000	3.57790E+000	10	...........
	1	0.026667	6.34284E-001	5.99460E-003	0.00000E+000	3.80228E-003	3.59960E-001	-1.12365E+000	3.57790E+000	10	...........
	2	0.04	6.42373E-001	5.99724E-003	0.00000E+000	3.85247E-003	3.59960E-001	-1.12731E+000	3.57790E+000	10	...........
	3	0.053333	6.49986E-001	5.99128E-003	0.00000E+000	3.89425E-003	3.59960E-001	-1.13279E+000	3.57790E+000	10	...........
	4	0.066667	6.57407E-001	5.99247E-003	0.00000E+000	3.93949E-003	3.59960E-001	-1.12292E+000	3.57790E+000	10	...........
	5	0.08	6.64577E-001	5.99175E-003	0.00000E+000	3.98198E-003	3.59960E-001	-1.12716E+000	3.57790E+000	10	...........
	6	0.093333	6.71604E-001	5.99186E-003	0.00000E+000	4.02416E-003	3.59960E-001	-1.13250E+000	3.57790E+000	10	...........
	7	0.106667	6.78488E-001	5.99765E-003	0.00000E+000	4.06933E-003	3.59960E-001	-1.12318E+000	3.57790E+000	10	...........
	8	0.12	6.85323E-001	5.99661E-003	0.00000E+000	4.10961E-003	3.59960E-001	-1.12726E+000	3.57790E+000	10	...........
	9	0.133333	6.92080E-001	5.99138E-003	0.00000E+000	4.14652E-003	3.59960E-001	-1.13230E+000	3.57790E+000	10	...........
	10	0.146667	6.98804E-001	6.00047E-003	0.00000E+000	4.19315E-003	3.59960E-001	-1.12273E+000	3.57790E+000	10	...........
	11	0.16	7.05406E-001	5.98997E-003	0.00000E+000	4.22537E-003	3.59960E-001	-1.12683E+000	3.57790E+000	10	...........
	12	0.173333	7.12009E-001	5.99528E-003	0.00000E+000	4.26869E-003	3.59960E-001	-1.13231E+000	3.57790E+000	10	...........
	13	0.186667	7.18580E-001	5.99579E-003	0.00000E+000	4.30846E-003	3.59960E-001	-1.12254E+000	3.57790E+000	10	...........
	14	0.2	7.25092E-001	5.99294E-003	0.00000E+000	4.34543E-003	3.59960E-001	-1.12671E+000	3.57790E+000	10	...........
	15	0.213333	7.31624E-001	5.99479E-003	0.00000E+000	4.38593E-003	3.59960E-001	-1.13178E+000	3.57790E+000	10	...........
	16	0.226667	7.38111E-001	5.99305E-003	0.00000E+000	4.42354E-003	3.59960E-001	-1.12226E+000	3.57790E+000	10	...........
	17	0.24	7.44613E-001	5.98902E-003	0.00000E+000	4.45951E-003	3.59960E-001	-1.12657E+000	3.57790E+000	10	...........
	18	0.253333	7.51076E-001	5.99159E-003	0.00000E+000	4.50014E-003	3.59960E-001	-1.13156E+000	3.57790E+000	10	...........
	19	0.266667	7.57514E-001	5.99131E-003	0.00000E+000	4.53850E-003	3.59960E-001	-1.12215E+000	3.57790E+000	10	...........
	20	0.28	7.63954E-001	5.99403E-003	0.00000E+000	4.57917E-003	3.59960E-001	-1.12645E+000	3.57790E+000	10	...........
	21	0.293333	7.70388E-001	5.99332E-003	0.00000E+000	4.61718E-003	3.59960E-001	-1.13142E+000	3.57790E+000	10	...........
	22	0.306667	7.76784E-001	5.99604E-003	0.00000E+000	4.65763E-003	3.59960E-001	-1.12210E+000	3.57790E+000	10	...........
	23	0.32	7.83171E-001	5.99453E-003	0.00000E+000	4.69475E-003	3.59960E-001	-1.12666E+000	3.57790E+000	10	...........
	24	0.333333	7.89522E-001	5.99583E-003	0.00000E+000	4.73384E-003	3.59960E-001	-1.13105E+000	3.57790E+000	10	...........
	25	0.346667	7.95902E-001	5.99622E-003	0.00000E+000	4.77241E-003	3.59960E-001	-1.12183E+000	3.57790E+000	10	...........
	26	0.36	8.02218E-001	5.99808E-003	0.00000E+000	4.81177E-003	3.59960E-001	-1.12609E+000	3.57790E+000	10	...........
	27	0.373333	8.08522E-001	5.99772E-003	0.00000E+000	4.84929E-003	3.59960E-001	-1.13067E+000	3.57790E+000	10	...........
	28	0.386667	8.14817E-001	5.99458E-003	0.00000E+000	4.88449E-003	3.59960E-001	-1.12168E+000	3.57790E+000	10	...........
	29	0.4	8.21179E-001	5.99915E-003	0.00000E+000	4.92638E-003	3.59960E-001	-1.12606E+000	3.57790E+000	10	...........
	30	0.413333	8.27473E-001	5.99602E-003	0.00000E+000	4.96155E-003	3.59960E-001	-1.13036E+000	3.57790E+000	10	...........
	31	0.426667	8.33708E-001	5.99412E-003	0.00000E+000	4.99734E-003	3.59960E-001	-1.12146E+000	3.57790E+000	10	...........
	32	0.44	8.39956E-001	5.99672E-003	0.00000E+000	5.03698E-003	3.59960E-001	-1.12631E+000	3.57790E+000	10	...........
	33	0.453333	8.46228E-001	5.99127E-003	0.00000E+000	5.06998E-003	3.59960E-001	-1.13051E+000	3.57790E+000	10	...........
	34	0.466667	8.52439E-001	5.99352E-003	0.00000E+000	5.10911E-003	3.59960E-001	-1.12124E+000	3.57790E+000	10	...........
	35	0.48	8.58655E-001	5.99443E-003	0.00000E+000	5.14715E-003	3.59960E-001	-1.12587E+000	3.57790E+000	10	...........
	36	0.493333	8.64866E-001	5.99730E-003	0.00000E+000	5.18686E-003	3.59960E-001	-1.13030E+000	3.57790E+000	10	...........
	37	0.506667	8.71066E-001	5.99523E-003	0.00000E+000	5.22224E-003	3.59960E-001	-1.12125E+000	3.57790E+000	10	...........
	38	0.52	8.77230E-001	5.99991E-003	0.00000E+000	5.26330E-003	3.59960E-001	-1.12603E+000	3.57790E+000	10	...........
	39	0.533333	8.83332E-001	5.99189E-003	0.00000E+000	5.29283E-003	3.59960E-001	-1.13000E+000	3.57790E+000	10	...........
	40	0.546667	8.89482E-001	5.99276E-003	0.00000E+000	5.33045E-003	3.59960E-001	-1.12105E+000	3.57790E+000	10	...........
	41	0.56	8.95552E-001	5.99268E-003	0.00000E+000	5.36675E-003	3.59960E-001	-1.12593E+000	3.57790E+000	10	...........
	42	0.573333	9.01578E-001	5.99386E-003	0.00000E+000	5.40393E-003	3.59960E-001	-1.13031E+000	3.57790E+000	10	...........
	43	0.586667	9.07620E-001	5.99270E-003	0.00000E+000	5.43909E-003	3.59960E-001	-1.12143E+000	3.57790E+000	10	...........
	44	0.6	9.13621E-001	5.99070E-003	0.00000E+000	5.47323E-003	3.59960E-001	-1.12624E+000	3.57790E+000	10	...........
	45	0.613333	9.19633E-001	5.99281E-003	0.00000E+000	5.51119E-003	3.59960E-001	-1.13026E+000	3.57790E+000	10	...........
	46	0.626667	9.25596E-001	5.99472E-003	0.00000E+000	5.54869E-003	3.59960E-001	-1.12143E+000	3.57790E+000	10	...........
	47	0.64	9.31496E-001	5.99552E-003	0.00000E+000	5.58481E-003	3.59960E-001	-1.12643E+000	3.57790E+000	10	...........
	48	0.653333	9.37378E-001	5.99407E-003	0.00000E+000	5.61871E-003	3.59960E-001	-1.13012E+000	3.57790E+000	10	...........
	49	0.666667	9.43213E-001	5.99317E-003	0.00000E+000	5.65283E-003	3.59960E-001	-1.12116E+000	3.57790E+000	10	...........
	50	0.68	9.49086E-001	5.99374E-003	0.00000E+000	5.68858E-003	3.59960E-001	-1.12597E+000	3.57790E+000	10	...........
	51	0.693333	9.54860E-001	5.99261E-003	0.00000E+000	5.72211E-003	3.59960E-001	-1.12973E+000	3.57790E+000	10	...........
	52	0.706667	9.60602E-001	5.99590E-003	0.00000E+000	5.75967E-003	3.59960E-001	-1.12114E+000	3.57790E+000	10	...........
	53	0.72	9.66309E-001	5.99238E-003	0.00000E+000	5.79049E-003	3.59960E-001	-1.12603E+000	3.57790E+000	10	...........
	54	0.733333	9.71995E-001	5.98946E-003	0.00000E+000	5.82173E-003	3.59960E-001	-1.12971E+000	3.57790E+000	10	...........
	55	0.746667	9.77613E-001	5.99699E-003	0.00000E+000	5.86274E-003	3.59960E-001	-1.12072E+000	3.57790E+000	10	...........
	56	0.76	9.83183E-001	5.99406E-003	0.00000E+000	5.89326E-003	3.59960E-001	-1.12609E+000	3.57790E+000	10	...........
	57	0.773333	9.88722E-001	5.99610E-003	0.00000E+000	5.92847E-003	3.59960E-001	-1.12964E+000	3.57790E+000	10	...........
	58	0.786667	9.94177E-001	5.99233E-003	0.00000E+000	5.95744E-003	3.59960E-001	-1.12087E+000	3.57790E+000	10	...........
	59	0.796667	9.98964E-001	5.99581E-003	0.00000E+000	5.98959E-003	3.59960E-001	-1.13147E+000	3.57790E+000	10	...........
STARTTIMEOFFSET	QUANT	710.6017	Start Time Offset (s)