Folder: Tesis/Data/CV_CRGO300517_1/PWRCCD_CRGO300517_1/CHARGE_DISCHARGE (part 167)

File: CHARGE_#339.DTA
EXPLAIN
TAG	PWR800_CHARGE
TITLE	LABEL	PWR Cyclic Charge Discharge (Cell) - Charge Step	Test &Identifier
DATE	LABEL	22-6-2017	Date
TIME	LABEL	15:49:31	Time
NOTES	NOTES	3	&Notes...
	supercap test cell
	0.6mg
	6M KOH
PSTAT	PSTAT	IFC5000-01520	Potentiostat
CAPACITY	QUANT	1.00000E-003	Capacity (A-hr)
CELLTYPE	SELECTOR	1	&Cell Type
WORKINGCONNECTION	SELECTOR	0	&Working Lead
MAXCHARGETIME	VARIABLEANDUNITS	1.00000E+002	s	1.00000E+002	second(s)	Max &Charge Time
CHARGECURRENT	QUANT	6.00000E-003	&Charge Current (A)
VOLTAGEFINISH	TWOPARAM	F	1.00000E-003	3.60000E+003	&Voltage Finish	 I (A) < 	Max Time(s)
SAMPLETIME	QUANT	1.00000E-002	Sa&mple Period (s)
CHARGESTOPAT1	MULTIPARAM	4	1.00000E+000	Charge Stop At &1	Voltage > Limit	V
CHARGESTOPAT2	MULTIPARAM	0	0.00000E+000	Charge Stop At &2	None	N/A
AESBHCSELECTOR	TOGGLE	F	Save Both Half Cells
IRCOMP	TOGGLE	F	IR &Measure
EOC	QUANT	0	Open Circuit (V)
SEQUENCER	TOGGLE	TRUE	Run as Sequence
PSTATMODEL	IQUANT	53	Pstat Model
PSTATSECTION	LABEL	IFC5000-01520	Pstat Section
PSTATSERIALNO	LABEL	01520	Pstat Serial Number
CTRLMODE	IQUANT	0	Control Mode
ELECTROMETER	IQUANT	1	RE=0 or CS=1
IESTAB	IQUANT	0	I/E Stability
CASPEED	IQUANT	4	Control Amp Speed
CONVENTION	IQUANT	1	Current Convention
ICHRANGE	IQUANT	2	Ich Range
ICHRANGEMODE	TOGGLE	T	Ich Auto Range
ICHOFFSETENABLE	TOGGLE	F	Ich Offset Enable
ICHOFFSET	QUANT	0	Ich Offset (V)
ICHFILTER	IQUANT	1	Ich Filter
VCHRANGE	IQUANT	2	Vch Range
VCHRANGEMODE	TOGGLE	T	Vch Auto Range
VCHOFFSETENABLE	TOGGLE	F	Vch Offset Enable
VCHOFFSET	QUANT	0	Vch Offset (V)
VCHFILTER	IQUANT	1	Vch Filter
IERANGELOWERLIMIT	IQUANT	9	I/E Range Lower Limit
IERANGEMODE	TOGGLE	F	I/E AutoRange
IERANGE	IQUANT	10	I/E Range
ACHSELECT	IQUANT	1	Ach Select
ACHRANGE	IQUANT	2	Ach Range
ACHOFFSETENABLE	TOGGLE	F	Ach Offset Enable
ACHOFFSET	QUANT	0	Ach Offset (V)
ACHFILTER	IQUANT	1	Ach Filter
CABLEID	IQUANT	14	Cable ID
DCCALDATE	LABEL	20-10-2016	DC Calibration Date
ACCALDATE	LABEL	12/3/2015	AC Calibration Date
FRAMEWORKVERSION	QUANT	7.01	Framework Version
INSTRUMENTVERSION	LABEL	4.00	Instrument Version
CURVE	TABLE	61
	Pt	T	Vf	Im	Vu	Pwr	Sig	Ach	Temp	IERange	Over
	#	s	V	A	V	W	V	V	deg C	#	bits
	0	0.013333	6.27709E-001	5.99206E-003	0.00000E+000	3.76127E-003	3.59960E-001	-1.12751E+000	3.57690E+000	10	...........
	1	0.026667	6.36173E-001	5.99753E-003	0.00000E+000	3.81547E-003	3.59960E-001	-1.11795E+000	3.57690E+000	10	...........
	2	0.04	6.44017E-001	5.99379E-003	0.00000E+000	3.86011E-003	3.59960E-001	-1.11933E+000	3.57690E+000	10	...........
	3	0.053333	6.51410E-001	5.99158E-003	0.00000E+000	3.90298E-003	3.59960E-001	-1.12743E+000	3.57690E+000	10	...........
	4	0.066667	6.58507E-001	5.99711E-003	0.00000E+000	3.94914E-003	3.59960E-001	-1.11741E+000	3.57690E+000	10	...........
	5	0.08	6.65463E-001	5.99607E-003	0.00000E+000	3.99016E-003	3.59960E-001	-1.11903E+000	3.57690E+000	10	...........
	6	0.093333	6.72307E-001	5.99554E-003	0.00000E+000	4.03084E-003	3.59960E-001	-1.12749E+000	3.57690E+000	10	...........
	7	0.106667	6.79027E-001	5.99133E-003	0.00000E+000	4.06827E-003	3.59960E-001	-1.11746E+000	3.57690E+000	10	...........
	8	0.12	6.85662E-001	5.99769E-003	0.00000E+000	4.11239E-003	3.59960E-001	-1.11879E+000	3.57690E+000	10	...........
	9	0.133333	6.92233E-001	5.98971E-003	0.00000E+000	4.14628E-003	3.59960E-001	-1.12639E+000	3.57690E+000	10	...........
	10	0.146667	6.98728E-001	5.99636E-003	0.00000E+000	4.18982E-003	3.59960E-001	-1.11683E+000	3.57690E+000	10	...........
	11	0.16	7.05176E-001	5.99497E-003	0.00000E+000	4.22751E-003	3.59960E-001	-1.11841E+000	3.57690E+000	10	...........
	12	0.173333	7.11596E-001	5.98913E-003	0.00000E+000	4.26184E-003	3.59960E-001	-1.12669E+000	3.57690E+000	10	...........
	13	0.186667	7.17987E-001	5.99616E-003	0.00000E+000	4.30517E-003	3.59960E-001	-1.11635E+000	3.57690E+000	10	...........
	14	0.2	7.24343E-001	5.99407E-003	0.00000E+000	4.34177E-003	3.59960E-001	-1.11758E+000	3.57690E+000	10	...........
	15	0.213333	7.30687E-001	5.99493E-003	0.00000E+000	4.38042E-003	3.59960E-001	-1.12633E+000	3.57690E+000	10	...........
	16	0.226667	7.36997E-001	5.99168E-003	0.00000E+000	4.41585E-003	3.59960E-001	-1.11661E+000	3.57690E+000	10	...........
	17	0.24	7.43339E-001	5.99375E-003	0.00000E+000	4.45539E-003	3.59960E-001	-1.11773E+000	3.57690E+000	10	...........
	18	0.253333	7.49639E-001	5.99044E-003	0.00000E+000	4.49067E-003	3.59960E-001	-1.12609E+000	3.57690E+000	10	...........
	19	0.266667	7.55907E-001	5.99219E-003	0.00000E+000	4.52954E-003	3.59960E-001	-1.11591E+000	3.57690E+000	10	...........
	20	0.28	7.62147E-001	5.99091E-003	0.00000E+000	4.56596E-003	3.59960E-001	-1.11736E+000	3.57690E+000	10	...........
	21	0.293333	7.68351E-001	5.99471E-003	0.00000E+000	4.60604E-003	3.59960E-001	-1.12615E+000	3.57690E+000	10	...........
	22	0.306667	7.74561E-001	5.99457E-003	0.00000E+000	4.64316E-003	3.59960E-001	-1.11619E+000	3.57690E+000	10	...........
	23	0.32	7.80778E-001	5.98770E-003	0.00000E+000	4.67506E-003	3.59960E-001	-1.11712E+000	3.57690E+000	10	...........
	24	0.333333	7.86970E-001	5.99010E-003	0.00000E+000	4.71403E-003	3.59960E-001	-1.12570E+000	3.57690E+000	10	...........
	25	0.346667	7.93208E-001	5.99045E-003	0.00000E+000	4.75167E-003	3.59960E-001	-1.11598E+000	3.57690E+000	10	...........
	26	0.36	7.99405E-001	5.99499E-003	0.00000E+000	4.79242E-003	3.59960E-001	-1.11722E+000	3.57690E+000	10	...........
	27	0.373333	8.05597E-001	5.99256E-003	0.00000E+000	4.82759E-003	3.59960E-001	-1.12601E+000	3.57690E+000	10	...........
	28	0.386667	8.11739E-001	5.99523E-003	0.00000E+000	4.86657E-003	3.59960E-001	-1.11585E+000	3.57690E+000	10	...........
	29	0.4	8.17895E-001	5.99031E-003	0.00000E+000	4.89945E-003	3.59960E-001	-1.11694E+000	3.57690E+000	10	...........
	30	0.413333	8.24053E-001	5.99447E-003	0.00000E+000	4.93976E-003	3.59960E-001	-1.12596E+000	3.57690E+000	10	...........
	31	0.426667	8.30150E-001	5.99501E-003	0.00000E+000	4.97676E-003	3.59960E-001	-1.11605E+000	3.57690E+000	10	...........
	32	0.44	8.36268E-001	5.99514E-003	0.00000E+000	5.01354E-003	3.59960E-001	-1.11696E+000	3.57690E+000	10	...........
	33	0.453333	8.42367E-001	5.99795E-003	0.00000E+000	5.05248E-003	3.59960E-001	-1.12571E+000	3.57690E+000	10	...........
	34	0.466667	8.48511E-001	5.99601E-003	0.00000E+000	5.08768E-003	3.59960E-001	-1.11563E+000	3.57690E+000	10	...........
	35	0.48	8.54563E-001	5.99652E-003	0.00000E+000	5.12441E-003	3.59960E-001	-1.11671E+000	3.57902E+000	10	...........
	36	0.493333	8.60649E-001	5.99282E-003	0.00000E+000	5.15771E-003	3.59960E-001	-1.12590E+000	3.58030E+000	10	...........
	37	0.506667	8.66695E-001	5.99658E-003	0.00000E+000	5.19720E-003	3.59960E-001	-1.11548E+000	3.58030E+000	10	...........
	38	0.52	8.72784E-001	5.99349E-003	0.00000E+000	5.23102E-003	3.59960E-001	-1.11660E+000	3.58030E+000	10	...........
	39	0.533333	8.78780E-001	5.99246E-003	0.00000E+000	5.26605E-003	3.59960E-001	-1.12573E+000	3.58030E+000	10	...........
	40	0.546667	8.84806E-001	5.99947E-003	0.00000E+000	5.30837E-003	3.59960E-001	-1.11577E+000	3.58030E+000	10	...........
	41	0.56	8.90835E-001	5.99361E-003	0.00000E+000	5.33932E-003	3.59960E-001	-1.11647E+000	3.58030E+000	10	...........
	42	0.573333	8.96792E-001	5.99391E-003	0.00000E+000	5.37529E-003	3.59960E-001	-1.12557E+000	3.58030E+000	10	...........
	43	0.586667	9.02739E-001	5.99229E-003	0.00000E+000	5.40947E-003	3.59960E-001	-1.11561E+000	3.58030E+000	10	...........
	44	0.6	9.08668E-001	5.99501E-003	0.00000E+000	5.44747E-003	3.59960E-001	-1.11605E+000	3.58030E+000	10	...........
	45	0.613333	9.14556E-001	5.99574E-003	0.00000E+000	5.48344E-003	3.59960E-001	-1.12536E+000	3.58030E+000	10	...........
	46	0.626667	9.20421E-001	6.00053E-003	0.00000E+000	5.52301E-003	3.59960E-001	-1.11553E+000	3.58030E+000	10	...........
	47	0.64	9.26307E-001	5.99128E-003	0.00000E+000	5.54976E-003	3.59960E-001	-1.11626E+000	3.58030E+000	10	...........
	48	0.653333	9.32105E-001	5.99510E-003	0.00000E+000	5.58806E-003	3.59960E-001	-1.12546E+000	3.58030E+000	10	...........
	49	0.666667	9.37890E-001	5.99491E-003	0.00000E+000	5.62256E-003	3.59960E-001	-1.11530E+000	3.58030E+000	10	...........
	50	0.68	9.43634E-001	5.99497E-003	0.00000E+000	5.65706E-003	3.59960E-001	-1.11593E+000	3.58030E+000	10	...........
	51	0.693333	9.49408E-001	5.98885E-003	0.00000E+000	5.68586E-003	3.59960E-001	-1.12548E+000	3.58030E+000	10	...........
	52	0.706667	9.55096E-001	5.99481E-003	0.00000E+000	5.72562E-003	3.59960E-001	-1.11528E+000	3.58030E+000	10	...........
	53	0.72	9.60717E-001	5.99483E-003	0.00000E+000	5.75934E-003	3.59960E-001	-1.11566E+000	3.58030E+000	10	...........
	54	0.733333	9.66347E-001	5.99165E-003	0.00000E+000	5.79001E-003	3.59960E-001	-1.12497E+000	3.58030E+000	10	...........
	55	0.746667	9.71944E-001	5.99393E-003	0.00000E+000	5.82576E-003	3.59960E-001	-1.11515E+000	3.58030E+000	10	...........
	56	0.76	9.77498E-001	5.99572E-003	0.00000E+000	5.86081E-003	3.59960E-001	-1.11567E+000	3.58030E+000	10	...........
	57	0.773333	9.82949E-001	5.99639E-003	0.00000E+000	5.89414E-003	3.59960E-001	-1.12482E+000	3.58030E+000	10	...........
	58	0.786667	9.88438E-001	5.99340E-003	0.00000E+000	5.92410E-003	3.59960E-001	-1.11447E+000	3.58030E+000	10	...........
	59	0.8	9.93852E-001	5.99029E-003	0.00000E+000	5.95346E-003	3.59960E-001	-1.11459E+000	3.58030E+000	10	...........
	60	0.81	9.98578E-001	5.99592E-003	0.00000E+000	5.98740E-003	3.59960E-001	-1.12488E+000	3.58030E+000	10	...........
STARTTIMEOFFSET	QUANT	604.858	Start Time Offset (s)

File: CHARGE_#340.DTA
EXPLAIN
TAG	PWR800_CHARGE
TITLE	LABEL	PWR Cyclic Charge Discharge (Cell) - Charge Step	Test &Identifier
DATE	LABEL	22-6-2017	Date
TIME	LABEL	15:49:34	Time
NOTES	NOTES	3	&Notes...
	supercap test cell
	0.6mg
	6M KOH
PSTAT	PSTAT	IFC5000-01520	Potentiostat
CAPACITY	QUANT	1.00000E-003	Capacity (A-hr)
CELLTYPE	SELECTOR	1	&Cell Type
WORKINGCONNECTION	SELECTOR	0	&Working Lead
MAXCHARGETIME	VARIABLEANDUNITS	1.00000E+002	s	1.00000E+002	second(s)	Max &Charge Time
CHARGECURRENT	QUANT	6.00000E-003	&Charge Current (A)
VOLTAGEFINISH	TWOPARAM	F	1.00000E-003	3.60000E+003	&Voltage Finish	 I (A) < 	Max Time(s)
SAMPLETIME	QUANT	1.00000E-002	Sa&mple Period (s)
CHARGESTOPAT1	MULTIPARAM	4	1.00000E+000	Charge Stop At &1	Voltage > Limit	V
CHARGESTOPAT2	MULTIPARAM	0	0.00000E+000	Charge Stop At &2	None	N/A
AESBHCSELECTOR	TOGGLE	F	Save Both Half Cells
IRCOMP	TOGGLE	F	IR &Measure
EOC	QUANT	0	Open Circuit (V)
SEQUENCER	TOGGLE	TRUE	Run as Sequence
PSTATMODEL	IQUANT	53	Pstat Model
PSTATSECTION	LABEL	IFC5000-01520	Pstat Section
PSTATSERIALNO	LABEL	01520	Pstat Serial Number
CTRLMODE	IQUANT	0	Control Mode
ELECTROMETER	IQUANT	1	RE=0 or CS=1
IESTAB	IQUANT	0	I/E Stability
CASPEED	IQUANT	4	Control Amp Speed
CONVENTION	IQUANT	1	Current Convention
ICHRANGE	IQUANT	2	Ich Range
ICHRANGEMODE	TOGGLE	T	Ich Auto Range
ICHOFFSETENABLE	TOGGLE	F	Ich Offset Enable
ICHOFFSET	QUANT	0	Ich Offset (V)
ICHFILTER	IQUANT	1	Ich Filter
VCHRANGE	IQUANT	2	Vch Range
VCHRANGEMODE	TOGGLE	T	Vch Auto Range
VCHOFFSETENABLE	TOGGLE	F	Vch Offset Enable
VCHOFFSET	QUANT	0	Vch Offset (V)
VCHFILTER	IQUANT	1	Vch Filter
IERANGELOWERLIMIT	IQUANT	9	I/E Range Lower Limit
IERANGEMODE	TOGGLE	F	I/E AutoRange
IERANGE	IQUANT	10	I/E Range
ACHSELECT	IQUANT	1	Ach Select
ACHRANGE	IQUANT	2	Ach Range
ACHOFFSETENABLE	TOGGLE	F	Ach Offset Enable
ACHOFFSET	QUANT	0	Ach Offset (V)
ACHFILTER	IQUANT	1	Ach Filter
CABLEID	IQUANT	14	Cable ID
DCCALDATE	LABEL	20-10-2016	DC Calibration Date
ACCALDATE	LABEL	12/3/2015	AC Calibration Date
FRAMEWORKVERSION	QUANT	7.01	Framework Version
INSTRUMENTVERSION	LABEL	4.00	Instrument Version
CURVE	TABLE	62
	Pt	T	Vf	Im	Vu	Pwr	Sig	Ach	Temp	IERange	Over
	#	s	V	A	V	W	V	V	deg C	#	bits
	0	0.013333	6.20201E-001	5.99182E-003	0.00000E+000	3.71613E-003	3.59960E-001	-1.12531E+000	3.57670E+000	10	...........
	1	0.026667	6.28853E-001	5.99565E-003	0.00000E+000	3.77038E-003	3.59960E-001	-1.11694E+000	3.57670E+000	10	...........
	2	0.04	6.36806E-001	5.99398E-003	0.00000E+000	3.81700E-003	3.59960E-001	-1.11480E+000	3.57670E+000	10	...........
	3	0.053333	6.44364E-001	5.99593E-003	0.00000E+000	3.86356E-003	3.59960E-001	-1.12540E+000	3.57671E+000	10	...........
	4	0.066667	6.51618E-001	5.99212E-003	0.00000E+000	3.90457E-003	3.59960E-001	-1.11697E+000	3.57680E+000	10	...........
	5	0.08	6.58695E-001	5.99311E-003	0.00000E+000	3.94764E-003	3.59960E-001	-1.11461E+000	3.57680E+000	10	...........
	6	0.093333	6.65689E-001	5.99521E-003	0.00000E+000	3.99095E-003	3.59960E-001	-1.12478E+000	3.57680E+000	10	...........
	7	0.106667	6.72537E-001	5.99417E-003	0.00000E+000	4.03130E-003	3.59960E-001	-1.11632E+000	3.57680E+000	10	...........
	8	0.12	6.79254E-001	5.99560E-003	0.00000E+000	4.07253E-003	3.59960E-001	-1.11396E+000	3.57680E+000	10	...........
	9	0.133333	6.85892E-001	5.99470E-003	0.00000E+000	4.11171E-003	3.59960E-001	-1.12450E+000	3.57680E+000	10	...........
	10	0.146667	6.92528E-001	5.99552E-003	0.00000E+000	4.15207E-003	3.59960E-001	-1.11633E+000	3.57680E+000	10	...........
	11	0.16	6.99074E-001	5.99184E-003	0.00000E+000	4.18874E-003	3.59960E-001	-1.11384E+000	3.57680E+000	10	...........
	12	0.173333	7.05596E-001	5.99431E-003	0.00000E+000	4.22957E-003	3.59960E-001	-1.12457E+000	3.57680E+000	10	...........
	13	0.186667	7.12096E-001	5.99155E-003	0.00000E+000	4.26656E-003	3.59960E-001	-1.11673E+000	3.57680E+000	10	...........
	14	0.2	7.18575E-001	5.99069E-003	0.00000E+000	4.30476E-003	3.59960E-001	-1.11450E+000	3.57680E+000	10	...........
	15	0.213333	7.25034E-001	5.99124E-003	0.00000E+000	4.34385E-003	3.59960E-001	-1.12475E+000	3.57680E+000	10	...........
	16	0.226667	7.31405E-001	5.99233E-003	0.00000E+000	4.38282E-003	3.59960E-001	-1.11680E+000	3.57680E+000	10	...........
	17	0.24	7.37796E-001	5.99934E-003	0.00000E+000	4.42629E-003	3.59960E-001	-1.11429E+000	3.57680E+000	10	...........
	18	0.253333	7.44198E-001	5.99485E-003	0.00000E+000	4.46135E-003	3.59960E-001	-1.12479E+000	3.57680E+000	10	...........
	19	0.266667	7.50562E-001	5.99067E-003	0.00000E+000	4.49637E-003	3.59960E-001	-1.11668E+000	3.57680E+000	10	...........
	20	0.28	7.56919E-001	5.99224E-003	0.00000E+000	4.53564E-003	3.59960E-001	-1.11369E+000	3.57680E+000	10	...........
	21	0.293333	7.63250E-001	5.99355E-003	0.00000E+000	4.57458E-003	3.59960E-001	-1.12401E+000	3.57680E+000	10	...........
	22	0.306667	7.69555E-001	5.99504E-003	0.00000E+000	4.61352E-003	3.59960E-001	-1.11603E+000	3.57680E+000	10	...........
	23	0.32	7.75899E-001	5.99715E-003	0.00000E+000	4.65318E-003	3.59960E-001	-1.11373E+000	3.57680E+000	10	...........
	24	0.333333	7.82216E-001	5.99736E-003	0.00000E+000	4.69123E-003	3.59960E-001	-1.12406E+000	3.57680E+000	10	...........
	25	0.346667	7.88470E-001	5.99857E-003	0.00000E+000	4.72969E-003	3.59960E-001	-1.11598E+000	3.57680E+000	10	...........
	26	0.36	7.94749E-001	5.99370E-003	0.00000E+000	4.76349E-003	3.59960E-001	-1.11322E+000	3.57680E+000	10	...........
	27	0.373333	8.00984E-001	5.99624E-003	0.00000E+000	4.80290E-003	3.59960E-001	-1.12369E+000	3.57680E+000	10	...........
	28	0.386667	8.07253E-001	5.99105E-003	0.00000E+000	4.83629E-003	3.59960E-001	-1.11597E+000	3.57680E+000	10	...........
	29	0.4	8.13479E-001	5.99257E-003	0.00000E+000	4.87483E-003	3.59960E-001	-1.11328E+000	3.57680E+000	10	...........
	30	0.413333	8.19730E-001	5.99128E-003	0.00000E+000	4.91123E-003	3.59960E-001	-1.12343E+000	3.57680E+000	10	...........
	31	0.426667	8.25933E-001	5.98802E-003	0.00000E+000	4.94571E-003	3.59960E-001	-1.11593E+000	3.57680E+000	10	...........
	32	0.44	8.32124E-001	5.99550E-003	0.00000E+000	4.98900E-003	3.59960E-001	-1.11302E+000	3.57680E+000	10	...........
	33	0.453333	8.38282E-001	5.99315E-003	0.00000E+000	5.02394E-003	3.59960E-001	-1.12344E+000	3.57680E+000	10	...........
	34	0.466667	8.44485E-001	5.99370E-003	0.00000E+000	5.06159E-003	3.59960E-001	-1.11605E+000	3.57680E+000	10	...........
	35	0.48	8.50689E-001	5.99448E-003	0.00000E+000	5.09944E-003	3.59960E-001	-1.11316E+000	3.57680E+000	10	...........
	36	0.493333	8.56824E-001	5.99538E-003	0.00000E+000	5.13698E-003	3.59960E-001	-1.12367E+000	3.57680E+000	10	...........
	37	0.506667	8.62960E-001	5.98886E-003	0.00000E+000	5.16814E-003	3.59960E-001	-1.11626E+000	3.57680E+000	10	...........
	38	0.52	8.69084E-001	5.98863E-003	0.00000E+000	5.20462E-003	3.59960E-001	-1.11365E+000	3.57680E+000	10	...........
	39	0.533333	8.75217E-001	5.99379E-003	0.00000E+000	5.24587E-003	3.59960E-001	-1.12383E+000	3.57680E+000	10	...........
	40	0.546667	8.81300E-001	5.99454E-003	0.00000E+000	5.28299E-003	3.59960E-001	-1.11636E+000	3.57680E+000	10	...........
	41	0.56	8.87382E-001	5.99549E-003	0.00000E+000	5.32029E-003	3.59960E-001	-1.11333E+000	3.57680E+000	10	...........
	42	0.573333	8.93397E-001	5.99366E-003	0.00000E+000	5.35471E-003	3.59960E-001	-1.12371E+000	3.57680E+000	10	...........
	43	0.586667	8.99384E-001	5.99333E-003	0.00000E+000	5.39031E-003	3.59960E-001	-1.11662E+000	3.57680E+000	10	...........
	44	0.6	9.05394E-001	5.99723E-003	0.00000E+000	5.42986E-003	3.59960E-001	-1.11329E+000	3.57680E+000	10	...........
	45	0.613333	9.11402E-001	5.99284E-003	0.00000E+000	5.46189E-003	3.59960E-001	-1.12338E+000	3.57680E+000	10	...........
	46	0.626667	9.17336E-001	5.99583E-003	0.00000E+000	5.50019E-003	3.59960E-001	-1.11628E+000	3.57680E+000	10	...........
	47	0.64	9.23317E-001	5.99454E-003	0.00000E+000	5.53486E-003	3.59960E-001	-1.11307E+000	3.57680E+000	10	...........
	48	0.653333	9.29177E-001	5.99574E-003	0.00000E+000	5.57110E-003	3.59960E-001	-1.12333E+000	3.57680E+000	10	...........
	49	0.666667	9.35059E-001	5.99241E-003	0.00000E+000	5.60326E-003	3.59960E-001	-1.11626E+000	3.57680E+000	10	...........
	50	0.68	9.40875E-001	5.99860E-003	0.00000E+000	5.64393E-003	3.59960E-001	-1.11324E+000	3.57680E+000	10	...........
	51	0.693333	9.46706E-001	5.99206E-003	0.00000E+000	5.67272E-003	3.59960E-001	-1.12315E+000	3.57680E+000	10	...........
	52	0.706667	9.52455E-001	5.99452E-003	0.00000E+000	5.70951E-003	3.59960E-001	-1.11627E+000	3.57680E+000	10	...........
	53	0.72	9.58138E-001	5.99343E-003	0.00000E+000	5.74253E-003	3.59960E-001	-1.11310E+000	3.57680E+000	10	...........
	54	0.733333	9.63808E-001	5.98913E-003	0.00000E+000	5.77237E-003	3.59960E-001	-1.12337E+000	3.57680E+000	10	...........
	55	0.746667	9.69465E-001	5.99773E-003	0.00000E+000	5.81459E-003	3.59960E-001	-1.11671E+000	3.57680E+000	10	...........
	56	0.76	9.75137E-001	5.99612E-003	0.00000E+000	5.84704E-003	3.59960E-001	-1.11329E+000	3.57680E+000	10	...........
	57	0.773333	9.80661E-001	5.99209E-003	0.00000E+000	5.87621E-003	3.59960E-001	-1.12332E+000	3.57680E+000	10	...........
	58	0.786667	9.86183E-001	5.99247E-003	0.00000E+000	5.90967E-003	3.59960E-001	-1.11658E+000	3.57680E+000	10	...........
	59	0.8	9.91642E-001	5.99305E-003	0.00000E+000	5.94296E-003	3.59960E-001	-1.11339E+000	3.57680E+000	10	...........
	60	0.813333	9.97025E-001	5.99273E-003	0.00000E+000	5.97490E-003	3.59960E-001	-1.12343E+000	3.57680E+000	10	...........
	61	0.815	1.00008E+000	5.99312E-003	0.00000E+000	5.99363E-003	3.59960E-001	-1.10185E+000	3.57680E+000	10	...........
STARTTIMEOFFSET	QUANT	606.4714	Start Time Offset (s)