Folder: Tesis/Data/CV_CRGO300517_1/PWRCCD_CRGO300517_1/CHARGE_DISCHARGE (part 133)

File: CHARGE_#268.DTA
EXPLAIN
TAG	PWR800_CHARGE
TITLE	LABEL	PWR Cyclic Charge Discharge (Cell) - Charge Step	Test &Identifier
DATE	LABEL	22-6-2017	Date
TIME	LABEL	15:46:37	Time
NOTES	NOTES	3	&Notes...
	supercap test cell
	0.6mg
	6M KOH
PSTAT	PSTAT	IFC5000-01520	Potentiostat
CAPACITY	QUANT	1.00000E-003	Capacity (A-hr)
CELLTYPE	SELECTOR	1	&Cell Type
WORKINGCONNECTION	SELECTOR	0	&Working Lead
MAXCHARGETIME	VARIABLEANDUNITS	1.00000E+002	s	1.00000E+002	second(s)	Max &Charge Time
CHARGECURRENT	QUANT	6.00000E-003	&Charge Current (A)
VOLTAGEFINISH	TWOPARAM	F	1.00000E-003	3.60000E+003	&Voltage Finish	 I (A) < 	Max Time(s)
SAMPLETIME	QUANT	1.00000E-002	Sa&mple Period (s)
CHARGESTOPAT1	MULTIPARAM	4	1.00000E+000	Charge Stop At &1	Voltage > Limit	V
CHARGESTOPAT2	MULTIPARAM	0	0.00000E+000	Charge Stop At &2	None	N/A
AESBHCSELECTOR	TOGGLE	F	Save Both Half Cells
IRCOMP	TOGGLE	F	IR &Measure
EOC	QUANT	0	Open Circuit (V)
SEQUENCER	TOGGLE	TRUE	Run as Sequence
PSTATMODEL	IQUANT	53	Pstat Model
PSTATSECTION	LABEL	IFC5000-01520	Pstat Section
PSTATSERIALNO	LABEL	01520	Pstat Serial Number
CTRLMODE	IQUANT	0	Control Mode
ELECTROMETER	IQUANT	1	RE=0 or CS=1
IESTAB	IQUANT	0	I/E Stability
CASPEED	IQUANT	4	Control Amp Speed
CONVENTION	IQUANT	1	Current Convention
ICHRANGE	IQUANT	2	Ich Range
ICHRANGEMODE	TOGGLE	T	Ich Auto Range
ICHOFFSETENABLE	TOGGLE	F	Ich Offset Enable
ICHOFFSET	QUANT	0	Ich Offset (V)
ICHFILTER	IQUANT	1	Ich Filter
VCHRANGE	IQUANT	2	Vch Range
VCHRANGEMODE	TOGGLE	T	Vch Auto Range
VCHOFFSETENABLE	TOGGLE	F	Vch Offset Enable
VCHOFFSET	QUANT	0	Vch Offset (V)
VCHFILTER	IQUANT	1	Vch Filter
IERANGELOWERLIMIT	IQUANT	9	I/E Range Lower Limit
IERANGEMODE	TOGGLE	F	I/E AutoRange
IERANGE	IQUANT	10	I/E Range
ACHSELECT	IQUANT	1	Ach Select
ACHRANGE	IQUANT	2	Ach Range
ACHOFFSETENABLE	TOGGLE	F	Ach Offset Enable
ACHOFFSET	QUANT	0	Ach Offset (V)
ACHFILTER	IQUANT	1	Ach Filter
CABLEID	IQUANT	14	Cable ID
DCCALDATE	LABEL	20-10-2016	DC Calibration Date
ACCALDATE	LABEL	12/3/2015	AC Calibration Date
FRAMEWORKVERSION	QUANT	7.01	Framework Version
INSTRUMENTVERSION	LABEL	4.00	Instrument Version
CURVE	TABLE	63
	Pt	T	Vf	Im	Vu	Pwr	Sig	Ach	Temp	IERange	Over
	#	s	V	A	V	W	V	V	deg C	#	bits
	0	0.013333	6.12943E-001	5.99286E-003	0.00000E+000	3.67329E-003	3.59960E-001	-1.11005E+000	3.57810E+000	10	...........
	1	0.026667	6.21554E-001	5.98985E-003	0.00000E+000	3.72301E-003	3.59960E-001	-1.10171E+000	3.57810E+000	10	...........
	2	0.04	6.29421E-001	5.99887E-003	0.00000E+000	3.77581E-003	3.59960E-001	-1.10583E+000	3.57810E+000	10	...........
	3	0.053333	6.36894E-001	5.99376E-003	0.00000E+000	3.81739E-003	3.59960E-001	-1.11036E+000	3.57810E+000	10	...........
	4	0.066667	6.44102E-001	5.99691E-003	0.00000E+000	3.86262E-003	3.59960E-001	-1.10182E+000	3.57810E+000	10	...........
	5	0.08	6.51119E-001	5.99186E-003	0.00000E+000	3.90141E-003	3.59960E-001	-1.10593E+000	3.57810E+000	10	...........
	6	0.093333	6.57983E-001	5.99333E-003	0.00000E+000	3.94351E-003	3.59960E-001	-1.11086E+000	3.57810E+000	10	...........
	7	0.106667	6.64773E-001	5.99116E-003	0.00000E+000	3.98276E-003	3.59960E-001	-1.10260E+000	3.57810E+000	10	...........
	8	0.12	6.71474E-001	5.98603E-003	0.00000E+000	4.01946E-003	3.59960E-001	-1.10630E+000	3.57810E+000	10	...........
	9	0.133333	6.78067E-001	5.99444E-003	0.00000E+000	4.06463E-003	3.59960E-001	-1.11102E+000	3.57810E+000	10	...........
	10	0.146667	6.84607E-001	5.99473E-003	0.00000E+000	4.10404E-003	3.59960E-001	-1.10265E+000	3.57810E+000	10	...........
	11	0.16	6.91116E-001	5.99392E-003	0.00000E+000	4.14249E-003	3.59960E-001	-1.10672E+000	3.57810E+000	10	...........
	12	0.173333	6.97551E-001	5.99479E-003	0.00000E+000	4.18167E-003	3.59960E-001	-1.11160E+000	3.57810E+000	10	...........
	13	0.186667	7.03975E-001	5.99054E-003	0.00000E+000	4.21719E-003	3.59960E-001	-1.10268E+000	3.57810E+000	10	...........
	14	0.2	7.10323E-001	5.99471E-003	0.00000E+000	4.25818E-003	3.59960E-001	-1.10648E+000	3.57810E+000	10	...........
	15	0.213333	7.16731E-001	5.99276E-003	0.00000E+000	4.29519E-003	3.59960E-001	-1.11138E+000	3.57810E+000	10	...........
	16	0.226667	7.23108E-001	5.99583E-003	0.00000E+000	4.33563E-003	3.59960E-001	-1.10269E+000	3.57810E+000	10	...........
	17	0.24	7.29409E-001	5.99329E-003	0.00000E+000	4.37156E-003	3.59960E-001	-1.10641E+000	3.57810E+000	10	...........
	18	0.253333	7.35696E-001	5.98936E-003	0.00000E+000	4.40635E-003	3.59960E-001	-1.11105E+000	3.57810E+000	10	...........
	19	0.266667	7.42030E-001	5.99878E-003	0.00000E+000	4.45127E-003	3.59960E-001	-1.10217E+000	3.57810E+000	10	...........
	20	0.28	7.48256E-001	5.99299E-003	0.00000E+000	4.48429E-003	3.59960E-001	-1.10572E+000	3.57810E+000	10	...........
	21	0.293333	7.54528E-001	5.99504E-003	0.00000E+000	4.52343E-003	3.59960E-001	-1.11100E+000	3.57810E+000	10	...........
	22	0.306667	7.60807E-001	5.99293E-003	0.00000E+000	4.55946E-003	3.59960E-001	-1.10221E+000	3.57810E+000	10	...........
	23	0.32	7.67015E-001	5.99460E-003	0.00000E+000	4.59795E-003	3.59960E-001	-1.10573E+000	3.57810E+000	10	...........
	24	0.333333	7.73273E-001	5.99441E-003	0.00000E+000	4.63531E-003	3.59960E-001	-1.11072E+000	3.57810E+000	10	...........
	25	0.346667	7.79512E-001	5.99259E-003	0.00000E+000	4.67130E-003	3.59960E-001	-1.10196E+000	3.57810E+000	10	...........
	26	0.36	7.85705E-001	5.99331E-003	0.00000E+000	4.70897E-003	3.59960E-001	-1.10566E+000	3.57810E+000	10	...........
	27	0.373333	7.91928E-001	5.99125E-003	0.00000E+000	4.74464E-003	3.59960E-001	-1.11070E+000	3.57810E+000	10	...........
	28	0.386667	7.98169E-001	5.98862E-003	0.00000E+000	4.77993E-003	3.59960E-001	-1.10163E+000	3.57810E+000	10	...........
	29	0.4	8.04304E-001	5.99383E-003	0.00000E+000	4.82086E-003	3.59960E-001	-1.10530E+000	3.57810E+000	10	...........
	30	0.413333	8.10453E-001	5.99236E-003	0.00000E+000	4.85653E-003	3.59960E-001	-1.11082E+000	3.57810E+000	10	...........
	31	0.426667	8.16620E-001	5.99362E-003	0.00000E+000	4.89451E-003	3.59960E-001	-1.10192E+000	3.57810E+000	10	...........
	32	0.44	8.22801E-001	5.99538E-003	0.00000E+000	4.93300E-003	3.59960E-001	-1.10508E+000	3.57810E+000	10	...........
	33	0.453333	8.28931E-001	5.98936E-003	0.00000E+000	4.96476E-003	3.59960E-001	-1.11047E+000	3.57810E+000	10	...........
	34	0.466667	8.35061E-001	5.99324E-003	0.00000E+000	5.00472E-003	3.59960E-001	-1.10190E+000	3.57810E+000	10	...........
	35	0.48	8.41179E-001	5.99518E-003	0.00000E+000	5.04302E-003	3.59960E-001	-1.10536E+000	3.57810E+000	10	...........
	36	0.493333	8.47334E-001	5.99363E-003	0.00000E+000	5.07861E-003	3.59960E-001	-1.11076E+000	3.57810E+000	10	...........
	37	0.506667	8.53466E-001	5.99200E-003	0.00000E+000	5.11397E-003	3.59960E-001	-1.10177E+000	3.57810E+000	10	...........
	38	0.52	8.59495E-001	5.99628E-003	0.00000E+000	5.15377E-003	3.59960E-001	-1.10508E+000	3.57810E+000	10	...........
	39	0.533333	8.65551E-001	5.99616E-003	0.00000E+000	5.18998E-003	3.59960E-001	-1.11051E+000	3.57810E+000	10	...........
	40	0.546667	8.71608E-001	5.99820E-003	0.00000E+000	5.22808E-003	3.59960E-001	-1.10173E+000	3.57810E+000	10	...........
	41	0.56	8.77649E-001	5.99284E-003	0.00000E+000	5.25961E-003	3.59960E-001	-1.10498E+000	3.57810E+000	10	...........
	42	0.573333	8.83668E-001	5.99704E-003	0.00000E+000	5.29939E-003	3.59960E-001	-1.11011E+000	3.57810E+000	10	...........
	43	0.586667	8.89666E-001	5.99073E-003	0.00000E+000	5.32974E-003	3.59960E-001	-1.10118E+000	3.57810E+000	10	...........
	44	0.6	8.95664E-001	5.99499E-003	0.00000E+000	5.36950E-003	3.59960E-001	-1.10449E+000	3.57810E+000	10	...........
	45	0.613333	9.01634E-001	5.99592E-003	0.00000E+000	5.40612E-003	3.59960E-001	-1.11013E+000	3.57810E+000	10	...........
	46	0.626667	9.07564E-001	5.99033E-003	0.00000E+000	5.43660E-003	3.59960E-001	-1.10100E+000	3.57810E+000	10	...........
	47	0.64	9.13486E-001	5.99296E-003	0.00000E+000	5.47448E-003	3.59960E-001	-1.10416E+000	3.57810E+000	10	...........
	48	0.653333	9.19443E-001	5.99414E-003	0.00000E+000	5.51127E-003	3.59960E-001	-1.10970E+000	3.57810E+000	10	...........
	49	0.666667	9.25314E-001	5.99062E-003	0.00000E+000	5.54320E-003	3.59960E-001	-1.10088E+000	3.57810E+000	10	...........
	50	0.68	9.31157E-001	6.00084E-003	0.00000E+000	5.58773E-003	3.59960E-001	-1.10413E+000	3.57810E+000	10	...........
	51	0.693333	9.36958E-001	5.99545E-003	0.00000E+000	5.61749E-003	3.59960E-001	-1.10990E+000	3.57810E+000	10	...........
	52	0.706667	9.42727E-001	5.99572E-003	0.00000E+000	5.65233E-003	3.59960E-001	-1.10085E+000	3.57810E+000	10	...........
	53	0.72	9.48457E-001	5.99502E-003	0.00000E+000	5.68602E-003	3.59960E-001	-1.10406E+000	3.57810E+000	10	...........
	54	0.733333	9.54192E-001	5.99402E-003	0.00000E+000	5.71945E-003	3.59960E-001	-1.10991E+000	3.57810E+000	10	...........
	55	0.746667	9.59868E-001	5.99485E-003	0.00000E+000	5.75426E-003	3.59960E-001	-1.10079E+000	3.57810E+000	10	...........
	56	0.76	9.65476E-001	5.99298E-003	0.00000E+000	5.78608E-003	3.59960E-001	-1.10402E+000	3.57810E+000	10	...........
	57	0.773333	9.71115E-001	5.99055E-003	0.00000E+000	5.81751E-003	3.59960E-001	-1.10982E+000	3.57810E+000	10	...........
	58	0.786667	9.76724E-001	5.99452E-003	0.00000E+000	5.85499E-003	3.59960E-001	-1.10084E+000	3.57810E+000	10	...........
	59	0.8	9.82206E-001	5.99175E-003	0.00000E+000	5.88513E-003	3.59960E-001	-1.10404E+000	3.57810E+000	10	...........
	60	0.813333	9.87686E-001	5.99535E-003	0.00000E+000	5.92152E-003	3.59960E-001	-1.10993E+000	3.57810E+000	10	...........
	61	0.826667	9.93146E-001	5.99410E-003	0.00000E+000	5.95302E-003	3.59960E-001	-1.10088E+000	3.57810E+000	10	...........
	62	0.838333	9.98246E-001	5.99306E-003	0.00000E+000	5.98255E-003	3.59960E-001	-1.10603E+000	3.57810E+000	10	...........
STARTTIMEOFFSET	QUANT	488.1017	Start Time Offset (s)

File: CHARGE_#269.DTA
EXPLAIN
TAG	PWR800_CHARGE
TITLE	LABEL	PWR Cyclic Charge Discharge (Cell) - Charge Step	Test &Identifier
DATE	LABEL	22-6-2017	Date
TIME	LABEL	15:46:40	Time
NOTES	NOTES	3	&Notes...
	supercap test cell
	0.6mg
	6M KOH
PSTAT	PSTAT	IFC5000-01520	Potentiostat
CAPACITY	QUANT	1.00000E-003	Capacity (A-hr)
CELLTYPE	SELECTOR	1	&Cell Type
WORKINGCONNECTION	SELECTOR	0	&Working Lead
MAXCHARGETIME	VARIABLEANDUNITS	1.00000E+002	s	1.00000E+002	second(s)	Max &Charge Time
CHARGECURRENT	QUANT	6.00000E-003	&Charge Current (A)
VOLTAGEFINISH	TWOPARAM	F	1.00000E-003	3.60000E+003	&Voltage Finish	 I (A) < 	Max Time(s)
SAMPLETIME	QUANT	1.00000E-002	Sa&mple Period (s)
CHARGESTOPAT1	MULTIPARAM	4	1.00000E+000	Charge Stop At &1	Voltage > Limit	V
CHARGESTOPAT2	MULTIPARAM	0	0.00000E+000	Charge Stop At &2	None	N/A
AESBHCSELECTOR	TOGGLE	F	Save Both Half Cells
IRCOMP	TOGGLE	F	IR &Measure
EOC	QUANT	0	Open Circuit (V)
SEQUENCER	TOGGLE	TRUE	Run as Sequence
PSTATMODEL	IQUANT	53	Pstat Model
PSTATSECTION	LABEL	IFC5000-01520	Pstat Section
PSTATSERIALNO	LABEL	01520	Pstat Serial Number
CTRLMODE	IQUANT	0	Control Mode
ELECTROMETER	IQUANT	1	RE=0 or CS=1
IESTAB	IQUANT	0	I/E Stability
CASPEED	IQUANT	4	Control Amp Speed
CONVENTION	IQUANT	1	Current Convention
ICHRANGE	IQUANT	2	Ich Range
ICHRANGEMODE	TOGGLE	T	Ich Auto Range
ICHOFFSETENABLE	TOGGLE	F	Ich Offset Enable
ICHOFFSET	QUANT	0	Ich Offset (V)
ICHFILTER	IQUANT	1	Ich Filter
VCHRANGE	IQUANT	2	Vch Range
VCHRANGEMODE	TOGGLE	T	Vch Auto Range
VCHOFFSETENABLE	TOGGLE	F	Vch Offset Enable
VCHOFFSET	QUANT	0	Vch Offset (V)
VCHFILTER	IQUANT	1	Vch Filter
IERANGELOWERLIMIT	IQUANT	9	I/E Range Lower Limit
IERANGEMODE	TOGGLE	F	I/E AutoRange
IERANGE	IQUANT	10	I/E Range
ACHSELECT	IQUANT	1	Ach Select
ACHRANGE	IQUANT	2	Ach Range
ACHOFFSETENABLE	TOGGLE	F	Ach Offset Enable
ACHOFFSET	QUANT	0	Ach Offset (V)
ACHFILTER	IQUANT	1	Ach Filter
CABLEID	IQUANT	14	Cable ID
DCCALDATE	LABEL	20-10-2016	DC Calibration Date
ACCALDATE	LABEL	12/3/2015	AC Calibration Date
FRAMEWORKVERSION	QUANT	7.01	Framework Version
INSTRUMENTVERSION	LABEL	4.00	Instrument Version
CURVE	TABLE	63
	Pt	T	Vf	Im	Vu	Pwr	Sig	Ach	Temp	IERange	Over
	#	s	V	A	V	W	V	V	deg C	#	bits
	0	0.013333	6.12922E-001	5.99224E-003	0.00000E+000	3.67277E-003	3.59960E-001	-1.10155E+000	3.57670E+000	10	...........
	1	0.026667	6.21530E-001	5.99778E-003	0.00000E+000	3.72780E-003	3.59960E-001	-1.10993E+000	3.57670E+000	10	...........
	2	0.04	6.29369E-001	5.98926E-003	0.00000E+000	3.76946E-003	3.59960E-001	-1.10600E+000	3.57670E+000	10	...........
	3	0.053333	6.36846E-001	5.99858E-003	0.00000E+000	3.82017E-003	3.59960E-001	-1.10112E+000	3.57670E+000	10	...........
	4	0.066667	6.44067E-001	5.99547E-003	0.00000E+000	3.86149E-003	3.59960E-001	-1.10944E+000	3.57670E+000	10	...........
	5	0.08	6.51067E-001	5.99057E-003	0.00000E+000	3.90026E-003	3.59960E-001	-1.10569E+000	3.57670E+000	10	...........
	6	0.093333	6.57931E-001	5.99305E-003	0.00000E+000	3.94302E-003	3.59960E-001	-1.10110E+000	3.57670E+000	10	...........
	7	0.106667	6.64654E-001	5.99247E-003	0.00000E+000	3.98292E-003	3.59960E-001	-1.10942E+000	3.57670E+000	10	...........
	8	0.12	6.71330E-001	5.99874E-003	0.00000E+000	4.02713E-003	3.59960E-001	-1.10574E+000	3.57670E+000	10	...........
	9	0.133333	6.77897E-001	5.99391E-003	0.00000E+000	4.06325E-003	3.59960E-001	-1.10091E+000	3.57670E+000	10	...........
	10	0.146667	6.84467E-001	5.99605E-003	0.00000E+000	4.10410E-003	3.59960E-001	-1.10928E+000	3.57670E+000	10	...........
	11	0.16	6.90935E-001	5.99498E-003	0.00000E+000	4.14214E-003	3.59960E-001	-1.10556E+000	3.57670E+000	10	...........
	12	0.173333	6.97371E-001	5.99404E-003	0.00000E+000	4.18007E-003	3.59960E-001	-1.10099E+000	3.57670E+000	10	...........
	13	0.186667	7.03777E-001	5.99200E-003	0.00000E+000	4.21703E-003	3.59960E-001	-1.10923E+000	3.57670E+000	10	...........
	14	0.2	7.10143E-001	5.99105E-003	0.00000E+000	4.25450E-003	3.59960E-001	-1.10544E+000	3.57670E+000	10	...........
	15	0.213333	7.16533E-001	5.99407E-003	0.00000E+000	4.29495E-003	3.59960E-001	-1.10086E+000	3.57670E+000	10	...........
	16	0.226667	7.22900E-001	5.99511E-003	0.00000E+000	4.33386E-003	3.59960E-001	-1.10919E+000	3.57673E+000	10	...........
	17	0.24	7.29206E-001	5.99288E-003	0.00000E+000	4.37005E-003	3.59960E-001	-1.10579E+000	3.57690E+000	10	...........
	18	0.253333	7.35489E-001	5.99500E-003	0.00000E+000	4.40926E-003	3.59960E-001	-1.10089E+000	3.57690E+000	10	...........
	19	0.266667	7.41775E-001	5.99202E-003	0.00000E+000	4.44473E-003	3.59960E-001	-1.10929E+000	3.57690E+000	10	...........
	20	0.28	7.48061E-001	5.99598E-003	0.00000E+000	4.48536E-003	3.59960E-001	-1.10572E+000	3.57690E+000	10	...........
	21	0.293333	7.54326E-001	5.99468E-003	0.00000E+000	4.52194E-003	3.59960E-001	-1.10095E+000	3.57690E+000	10	...........
	22	0.306667	7.60588E-001	5.99200E-003	0.00000E+000	4.55744E-003	3.59960E-001	-1.10925E+000	3.57690E+000	10	...........
	23	0.32	7.66820E-001	5.99925E-003	0.00000E+000	4.60034E-003	3.59960E-001	-1.10567E+000	3.57690E+000	10	...........
	24	0.333333	7.73046E-001	5.99543E-003	0.00000E+000	4.63474E-003	3.59960E-001	-1.10071E+000	3.57690E+000	10	...........
	25	0.346667	7.79269E-001	5.98944E-003	0.00000E+000	4.66738E-003	3.59960E-001	-1.10873E+000	3.57690E+000	10	...........
	26	0.36	7.85466E-001	5.99500E-003	0.00000E+000	4.70887E-003	3.59960E-001	-1.10538E+000	3.57690E+000	10	...........
	27	0.373333	7.91693E-001	5.99462E-003	0.00000E+000	4.74590E-003	3.59960E-001	-1.10060E+000	3.57690E+000	10	...........
	28	0.386667	7.97906E-001	5.99297E-003	0.00000E+000	4.78182E-003	3.59960E-001	-1.10864E+000	3.57690E+000	10	...........
	29	0.4	8.04089E-001	5.99345E-003	0.00000E+000	4.81927E-003	3.59960E-001	-1.10526E+000	3.57690E+000	10	...........
	30	0.413333	8.10248E-001	5.99834E-003	0.00000E+000	4.86014E-003	3.59960E-001	-1.10030E+000	3.57690E+000	10	...........
	31	0.426667	8.16371E-001	5.99336E-003	0.00000E+000	4.89281E-003	3.59960E-001	-1.10851E+000	3.57690E+000	10	...........
	32	0.44	8.22527E-001	5.99477E-003	0.00000E+000	4.93086E-003	3.59960E-001	-1.10552E+000	3.57690E+000	10	...........
	33	0.453333	8.28701E-001	5.99644E-003	0.00000E+000	4.96925E-003	3.59960E-001	-1.10032E+000	3.57690E+000	10	...........
	34	0.466667	8.34844E-001	5.99378E-003	0.00000E+000	5.00387E-003	3.59960E-001	-1.10829E+000	3.57690E+000	10	...........
	35	0.48	8.40928E-001	5.99418E-003	0.00000E+000	5.04067E-003	3.59960E-001	-1.10532E+000	3.57690E+000	10	...........
	36	0.493333	8.47050E-001	5.98937E-003	0.00000E+000	5.07329E-003	3.59960E-001	-1.10009E+000	3.57690E+000	10	...........
	37	0.506667	8.53185E-001	5.99756E-003	0.00000E+000	5.11702E-003	3.59960E-001	-1.10836E+000	3.57690E+000	10	...........
	38	0.52	8.59277E-001	5.99177E-003	0.00000E+000	5.14859E-003	3.59960E-001	-1.10526E+000	3.57690E+000	10	...........
	39	0.533333	8.65342E-001	5.99707E-003	0.00000E+000	5.18951E-003	3.59960E-001	-1.10017E+000	3.57690E+000	10	...........
	40	0.546667	8.71404E-001	5.99298E-003	0.00000E+000	5.22230E-003	3.59960E-001	-1.10826E+000	3.57690E+000	10	...........
	41	0.56	8.77460E-001	5.98945E-003	0.00000E+000	5.25550E-003	3.59960E-001	-1.10529E+000	3.57690E+000	10	...........
	42	0.573333	8.83523E-001	5.99311E-003	0.00000E+000	5.29506E-003	3.59960E-001	-1.10034E+000	3.57690E+000	10	...........
	43	0.586667	8.89484E-001	5.99702E-003	0.00000E+000	5.33426E-003	3.59960E-001	-1.10846E+000	3.57690E+000	10	...........
	44	0.6	8.95452E-001	5.99138E-003	0.00000E+000	5.36499E-003	3.59960E-001	-1.10521E+000	3.57690E+000	10	...........
	45	0.613333	9.01430E-001	5.98805E-003	0.00000E+000	5.39781E-003	3.59960E-001	-1.10027E+000	3.57690E+000	10	...........
	46	0.626667	9.07430E-001	5.99351E-003	0.00000E+000	5.43869E-003	3.59960E-001	-1.10832E+000	3.57690E+000	10	...........
	47	0.64	9.13341E-001	5.99327E-003	0.00000E+000	5.47390E-003	3.59960E-001	-1.10547E+000	3.57690E+000	10	...........
	48	0.653333	9.19235E-001	5.99537E-003	0.00000E+000	5.51115E-003	3.59960E-001	-1.10026E+000	3.57690E+000	10	...........
	49	0.666667	9.25140E-001	5.99499E-003	0.00000E+000	5.54621E-003	3.59960E-001	-1.10796E+000	3.57690E+000	10	...........
	50	0.68	9.30936E-001	5.99393E-003	0.00000E+000	5.57996E-003	3.59960E-001	-1.10496E+000	3.57690E+000	10	...........
	51	0.693333	9.36729E-001	5.99269E-003	0.00000E+000	5.61352E-003	3.59960E-001	-1.10003E+000	3.57690E+000	10	...........
	52	0.706667	9.42468E-001	5.98954E-003	0.00000E+000	5.64494E-003	3.59960E-001	-1.10789E+000	3.57690E+000	10	...........
	53	0.72	9.48254E-001	5.99256E-003	0.00000E+000	5.68247E-003	3.59960E-001	-1.10505E+000	3.57690E+000	10	...........
	54	0.733333	9.53973E-001	5.99608E-003	0.00000E+000	5.72010E-003	3.59960E-001	-1.09994E+000	3.57690E+000	10	...........
	55	0.746667	9.59700E-001	5.99195E-003	0.00000E+000	5.75047E-003	3.59960E-001	-1.10783E+000	3.57690E+000	10	...........
	56	0.76	9.65355E-001	5.99912E-003	0.00000E+000	5.79128E-003	3.59960E-001	-1.10519E+000	3.57690E+000	10	...........
	57	0.773333	9.70958E-001	6.00017E-003	0.00000E+000	5.82592E-003	3.59960E-001	-1.09985E+000	3.57690E+000	10	...........
	58	0.786667	9.76535E-001	5.99542E-003	0.00000E+000	5.85474E-003	3.59960E-001	-1.10801E+000	3.57690E+000	10	...........
	59	0.8	9.82027E-001	5.99235E-003	0.00000E+000	5.88465E-003	3.59960E-001	-1.10500E+000	3.57690E+000	10	...........
	60	0.813333	9.87527E-001	5.99565E-003	0.00000E+000	5.92086E-003	3.59960E-001	-1.09996E+000	3.57690E+000	10	...........
	61	0.826667	9.92971E-001	5.99803E-003	0.00000E+000	5.95587E-003	3.59960E-001	-1.10791E+000	3.57690E+000	10	...........
	62	0.838333	9.98070E-001	5.99473E-003	0.00000E+000	5.98317E-003	3.59960E-001	-1.10430E+000	3.57690E+000	10	...........
STARTTIMEOFFSET	QUANT	489.77	Start Time Offset (s)