Folder: Tesis/Data/CV_CRGO300517_1/PWRCCD_CRGO300517_1/CHARGE_DISCHARGE (part 71)

File: CHARGE_#141.DTA
EXPLAIN
TAG	PWR800_CHARGE
TITLE	LABEL	PWR Cyclic Charge Discharge (Cell) - Charge Step	Test &Identifier
DATE	LABEL	22-6-2017	Date
TIME	LABEL	15:41:18	Time
NOTES	NOTES	3	&Notes...
	supercap test cell
	0.6mg
	6M KOH
PSTAT	PSTAT	IFC5000-01520	Potentiostat
CAPACITY	QUANT	1.00000E-003	Capacity (A-hr)
CELLTYPE	SELECTOR	1	&Cell Type
WORKINGCONNECTION	SELECTOR	0	&Working Lead
MAXCHARGETIME	VARIABLEANDUNITS	1.00000E+002	s	1.00000E+002	second(s)	Max &Charge Time
CHARGECURRENT	QUANT	6.00000E-003	&Charge Current (A)
VOLTAGEFINISH	TWOPARAM	F	1.00000E-003	3.60000E+003	&Voltage Finish	 I (A) < 	Max Time(s)
SAMPLETIME	QUANT	1.00000E-002	Sa&mple Period (s)
CHARGESTOPAT1	MULTIPARAM	4	1.00000E+000	Charge Stop At &1	Voltage > Limit	V
CHARGESTOPAT2	MULTIPARAM	0	0.00000E+000	Charge Stop At &2	None	N/A
AESBHCSELECTOR	TOGGLE	F	Save Both Half Cells
IRCOMP	TOGGLE	F	IR &Measure
EOC	QUANT	0	Open Circuit (V)
SEQUENCER	TOGGLE	TRUE	Run as Sequence
PSTATMODEL	IQUANT	53	Pstat Model
PSTATSECTION	LABEL	IFC5000-01520	Pstat Section
PSTATSERIALNO	LABEL	01520	Pstat Serial Number
CTRLMODE	IQUANT	0	Control Mode
ELECTROMETER	IQUANT	1	RE=0 or CS=1
IESTAB	IQUANT	0	I/E Stability
CASPEED	IQUANT	4	Control Amp Speed
CONVENTION	IQUANT	1	Current Convention
ICHRANGE	IQUANT	2	Ich Range
ICHRANGEMODE	TOGGLE	T	Ich Auto Range
ICHOFFSETENABLE	TOGGLE	F	Ich Offset Enable
ICHOFFSET	QUANT	0	Ich Offset (V)
ICHFILTER	IQUANT	1	Ich Filter
VCHRANGE	IQUANT	2	Vch Range
VCHRANGEMODE	TOGGLE	T	Vch Auto Range
VCHOFFSETENABLE	TOGGLE	F	Vch Offset Enable
VCHOFFSET	QUANT	0	Vch Offset (V)
VCHFILTER	IQUANT	1	Vch Filter
IERANGELOWERLIMIT	IQUANT	9	I/E Range Lower Limit
IERANGEMODE	TOGGLE	F	I/E AutoRange
IERANGE	IQUANT	10	I/E Range
ACHSELECT	IQUANT	1	Ach Select
ACHRANGE	IQUANT	2	Ach Range
ACHOFFSETENABLE	TOGGLE	F	Ach Offset Enable
ACHOFFSET	QUANT	0	Ach Offset (V)
ACHFILTER	IQUANT	1	Ach Filter
CABLEID	IQUANT	14	Cable ID
DCCALDATE	LABEL	20-10-2016	DC Calibration Date
ACCALDATE	LABEL	12/3/2015	AC Calibration Date
FRAMEWORKVERSION	QUANT	7.01	Framework Version
INSTRUMENTVERSION	LABEL	4.00	Instrument Version
CURVE	TABLE	68
	Pt	T	Vf	Im	Vu	Pwr	Sig	Ach	Temp	IERange	Over
	#	s	V	A	V	W	V	V	deg C	#	bits
	0	0.013333	5.96495E-001	5.99750E-003	0.00000E+000	3.57748E-003	3.59960E-001	-1.07967E+000	3.57720E+000	10	...........
	1	0.026667	6.04850E-001	5.99804E-003	0.00000E+000	3.62791E-003	3.59960E-001	-1.08968E+000	3.57720E+000	10	...........
	2	0.04	6.12548E-001	5.99341E-003	0.00000E+000	3.67125E-003	3.59960E-001	-1.08347E+000	3.57720E+000	10	...........
	3	0.053333	6.19820E-001	5.99447E-003	0.00000E+000	3.71549E-003	3.59960E-001	-1.08027E+000	3.57720E+000	10	...........
	4	0.066667	6.26799E-001	5.99297E-003	0.00000E+000	3.75638E-003	3.59960E-001	-1.08986E+000	3.57720E+000	10	...........
	5	0.08	6.33547E-001	5.99156E-003	0.00000E+000	3.79594E-003	3.59960E-001	-1.08383E+000	3.57720E+000	10	...........
	6	0.093333	6.40252E-001	5.99625E-003	0.00000E+000	3.83911E-003	3.59960E-001	-1.08083E+000	3.57720E+000	10	...........
	7	0.106667	6.46830E-001	5.99936E-003	0.00000E+000	3.88057E-003	3.59960E-001	-1.09022E+000	3.57720E+000	10	...........
	8	0.12	6.53301E-001	5.99567E-003	0.00000E+000	3.91698E-003	3.59960E-001	-1.08491E+000	3.57720E+000	10	...........
	9	0.133333	6.59659E-001	5.99458E-003	0.00000E+000	3.95438E-003	3.59960E-001	-1.08164E+000	3.57720E+000	10	...........
	10	0.146667	6.66031E-001	5.99103E-003	0.00000E+000	3.99021E-003	3.59960E-001	-1.09130E+000	3.57720E+000	10	...........
	11	0.16	6.72329E-001	5.99113E-003	0.00000E+000	4.02801E-003	3.59960E-001	-1.08615E+000	3.57720E+000	10	...........
	12	0.173333	6.78581E-001	5.99650E-003	0.00000E+000	4.06912E-003	3.59960E-001	-1.08347E+000	3.57720E+000	10	...........
	13	0.186667	6.84789E-001	5.99367E-003	0.00000E+000	4.10439E-003	3.59960E-001	-1.09311E+000	3.57720E+000	10	...........
	14	0.2	6.90953E-001	5.99452E-003	0.00000E+000	4.14194E-003	3.59960E-001	-1.08829E+000	3.57720E+000	10	...........
	15	0.213333	6.97117E-001	5.99348E-003	0.00000E+000	4.17816E-003	3.59960E-001	-1.08562E+000	3.57720E+000	10	...........
	16	0.226667	7.03241E-001	5.99203E-003	0.00000E+000	4.21384E-003	3.59960E-001	-1.09546E+000	3.57720E+000	10	...........
	17	0.24	7.09318E-001	5.99540E-003	0.00000E+000	4.25264E-003	3.59960E-001	-1.09115E+000	3.57720E+000	10	...........
	18	0.253333	7.15410E-001	5.99394E-003	0.00000E+000	4.28812E-003	3.59960E-001	-1.08871E+000	3.57720E+000	10	...........
	19	0.266667	7.21500E-001	5.99491E-003	0.00000E+000	4.32532E-003	3.59960E-001	-1.09815E+000	3.57720E+000	10	...........
	20	0.28	7.27556E-001	5.99719E-003	0.00000E+000	4.36329E-003	3.59960E-001	-1.09390E+000	3.57720E+000	10	...........
	21	0.293333	7.33585E-001	5.99115E-003	0.00000E+000	4.39502E-003	3.59960E-001	-1.09144E+000	3.57720E+000	10	...........
	22	0.306667	7.39644E-001	5.99446E-003	0.00000E+000	4.43377E-003	3.59960E-001	-1.10129E+000	3.57720E+000	10	...........
	23	0.32	7.45649E-001	5.99329E-003	0.00000E+000	4.46889E-003	3.59960E-001	-1.09725E+000	3.57720E+000	10	...........
	24	0.333333	7.51681E-001	5.99136E-003	0.00000E+000	4.50359E-003	3.59960E-001	-1.09433E+000	3.57720E+000	10	...........
	25	0.346667	7.57698E-001	5.99319E-003	0.00000E+000	4.54103E-003	3.59960E-001	-1.10376E+000	3.57720E+000	10	...........
	26	0.36	7.63723E-001	5.99204E-003	0.00000E+000	4.57626E-003	3.59960E-001	-1.10000E+000	3.57720E+000	10	...........
	27	0.373333	7.69718E-001	5.99293E-003	0.00000E+000	4.61286E-003	3.59960E-001	-1.09756E+000	3.57720E+000	10	...........
	28	0.386667	7.75721E-001	5.99761E-003	0.00000E+000	4.65247E-003	3.59960E-001	-1.10677E+000	3.57720E+000	10	...........
	29	0.4	7.81712E-001	5.99315E-003	0.00000E+000	4.68491E-003	3.59960E-001	-1.10279E+000	3.57720E+000	10	...........
	30	0.413333	7.87707E-001	5.99734E-003	0.00000E+000	4.72414E-003	3.59960E-001	-1.09980E+000	3.57720E+000	10	...........
	31	0.426667	7.93734E-001	5.99543E-003	0.00000E+000	4.75878E-003	3.59960E-001	-1.10856E+000	3.57720E+000	10	...........
	32	0.44	7.99712E-001	5.99219E-003	0.00000E+000	4.79203E-003	3.59960E-001	-1.10418E+000	3.57720E+000	10	...........
	33	0.453333	8.05698E-001	5.99152E-003	0.00000E+000	4.82736E-003	3.59960E-001	-1.10007E+000	3.57720E+000	10	...........
	34	0.466667	8.11659E-001	5.99094E-003	0.00000E+000	4.86261E-003	3.59960E-001	-1.10708E+000	3.57720E+000	10	...........
	35	0.48	8.17612E-001	5.99715E-003	0.00000E+000	4.90334E-003	3.59960E-001	-1.10196E+000	3.57720E+000	10	...........
	36	0.493333	8.23605E-001	5.99441E-003	0.00000E+000	4.93702E-003	3.59960E-001	-1.09714E+000	3.57720E+000	10	...........
	37	0.506667	8.29583E-001	5.99384E-003	0.00000E+000	4.97239E-003	3.59960E-001	-1.10287E+000	3.57720E+000	10	...........
	38	0.52	8.35482E-001	5.99506E-003	0.00000E+000	5.00877E-003	3.59960E-001	-1.09506E+000	3.57720E+000	10	...........
	39	0.533333	8.41424E-001	5.99034E-003	0.00000E+000	5.04042E-003	3.59960E-001	-1.08634E+000	3.57720E+000	10	...........
	40	0.546667	8.47379E-001	5.99525E-003	0.00000E+000	5.08025E-003	3.59960E-001	-1.08945E+000	3.57720E+000	10	...........
	41	0.56	8.53287E-001	5.99765E-003	0.00000E+000	5.11772E-003	3.59960E-001	-1.08117E+000	3.57720E+000	10	...........
	42	0.573333	8.59222E-001	5.99117E-003	0.00000E+000	5.14775E-003	3.59960E-001	-1.07507E+000	3.57720E+000	10	...........
	43	0.586667	8.65140E-001	5.99028E-003	0.00000E+000	5.18243E-003	3.59960E-001	-1.08314E+000	3.57720E+000	10	...........
	44	0.6	8.71105E-001	5.99493E-003	0.00000E+000	5.22221E-003	3.59960E-001	-1.08062E+000	3.57720E+000	10	...........
	45	0.613333	8.77000E-001	5.99233E-003	0.00000E+000	5.25527E-003	3.59960E-001	-1.07798E+000	3.57720E+000	10	...........
	46	0.626667	8.82881E-001	5.99548E-003	0.00000E+000	5.29329E-003	3.59960E-001	-1.08645E+000	3.57720E+000	10	...........
	47	0.64	8.88709E-001	5.99372E-003	0.00000E+000	5.32667E-003	3.59960E-001	-1.08171E+000	3.57720E+000	10	...........
	48	0.653333	8.94560E-001	5.99589E-003	0.00000E+000	5.36368E-003	3.59960E-001	-1.07477E+000	3.57720E+000	10	...........
	49	0.666667	9.00398E-001	5.99345E-003	0.00000E+000	5.39649E-003	3.59960E-001	-1.07686E+000	3.57720E+000	10	...........
	50	0.68	9.06219E-001	5.99197E-003	0.00000E+000	5.43004E-003	3.59960E-001	-1.06401E+000	3.57720E+000	10	...........
	51	0.693333	9.12014E-001	5.99478E-003	0.00000E+000	5.46732E-003	3.59960E-001	-1.04912E+000	3.57720E+000	10	...........
	52	0.706667	9.17804E-001	5.99389E-003	0.00000E+000	5.50121E-003	3.59960E-001	-1.04434E+000	3.57720E+000	10	...........
	53	0.72	9.23615E-001	5.99161E-003	0.00000E+000	5.53394E-003	3.59960E-001	-1.02661E+000	3.57720E+000	10	...........
	54	0.733333	9.29313E-001	5.99343E-003	0.00000E+000	5.56977E-003	3.59960E-001	-1.00904E+000	3.57720E+000	10	...........
	55	0.746667	9.34992E-001	5.99483E-003	0.00000E+000	5.60512E-003	3.59960E-001	-1.00788E+000	3.57720E+000	10	...........
	56	0.76	9.40673E-001	5.99206E-003	0.00000E+000	5.63657E-003	3.59960E-001	-1.00091E+000	3.57720E+000	10	...........
	57	0.773333	9.46358E-001	5.99159E-003	0.00000E+000	5.67019E-003	3.59960E-001	-9.97231E-001	3.57720E+000	10	...........
	58	0.786667	9.52026E-001	5.99451E-003	0.00000E+000	5.70693E-003	3.59960E-001	-1.00678E+000	3.57720E+000	10	...........
	59	0.8	9.57622E-001	5.99560E-003	0.00000E+000	5.74151E-003	3.59960E-001	-1.00304E+000	3.57720E+000	10	...........
	60	0.813333	9.63174E-001	5.99200E-003	0.00000E+000	5.77134E-003	3.59960E-001	-9.98106E-001	3.57720E+000	10	...........
	61	0.826667	9.68712E-001	5.99377E-003	0.00000E+000	5.80624E-003	3.59960E-001	-1.00598E+000	3.57720E+000	10	...........
	62	0.84	9.74267E-001	5.99406E-003	0.00000E+000	5.83982E-003	3.59960E-001	-1.00366E+000	3.57720E+000	10	...........
	63	0.853333	9.79751E-001	5.99541E-003	0.00000E+000	5.87401E-003	3.59960E-001	-1.00042E+000	3.57720E+000	10	...........
	64	0.866667	9.85197E-001	5.99539E-003	0.00000E+000	5.90664E-003	3.59960E-001	-1.00982E+000	3.57720E+000	10	...........
	65	0.88	9.90579E-001	5.99456E-003	0.00000E+000	5.93809E-003	3.59960E-001	-1.00818E+000	3.57720E+000	10	...........
	66	0.893333	9.95945E-001	5.99827E-003	0.00000E+000	5.97394E-003	3.59960E-001	-1.00573E+000	3.57803E+000	10	...........
	67	0.898333	9.99584E-001	5.99780E-003	0.00000E+000	5.99530E-003	3.59960E-001	-1.02003E+000	3.57830E+000	10	...........
STARTTIMEOFFSET	QUANT	269.5767	Start Time Offset (s)

File: CHARGE_#142.DTA
EXPLAIN
TAG	PWR800_CHARGE
TITLE	LABEL	PWR Cyclic Charge Discharge (Cell) - Charge Step	Test &Identifier
DATE	LABEL	22-6-2017	Date
TIME	LABEL	15:41:20	Time
NOTES	NOTES	3	&Notes...
	supercap test cell
	0.6mg
	6M KOH
PSTAT	PSTAT	IFC5000-01520	Potentiostat
CAPACITY	QUANT	1.00000E-003	Capacity (A-hr)
CELLTYPE	SELECTOR	1	&Cell Type
WORKINGCONNECTION	SELECTOR	0	&Working Lead
MAXCHARGETIME	VARIABLEANDUNITS	1.00000E+002	s	1.00000E+002	second(s)	Max &Charge Time
CHARGECURRENT	QUANT	6.00000E-003	&Charge Current (A)
VOLTAGEFINISH	TWOPARAM	F	1.00000E-003	3.60000E+003	&Voltage Finish	 I (A) < 	Max Time(s)
SAMPLETIME	QUANT	1.00000E-002	Sa&mple Period (s)
CHARGESTOPAT1	MULTIPARAM	4	1.00000E+000	Charge Stop At &1	Voltage > Limit	V
CHARGESTOPAT2	MULTIPARAM	0	0.00000E+000	Charge Stop At &2	None	N/A
AESBHCSELECTOR	TOGGLE	F	Save Both Half Cells
IRCOMP	TOGGLE	F	IR &Measure
EOC	QUANT	0	Open Circuit (V)
SEQUENCER	TOGGLE	TRUE	Run as Sequence
PSTATMODEL	IQUANT	53	Pstat Model
PSTATSECTION	LABEL	IFC5000-01520	Pstat Section
PSTATSERIALNO	LABEL	01520	Pstat Serial Number
CTRLMODE	IQUANT	0	Control Mode
ELECTROMETER	IQUANT	1	RE=0 or CS=1
IESTAB	IQUANT	0	I/E Stability
CASPEED	IQUANT	4	Control Amp Speed
CONVENTION	IQUANT	1	Current Convention
ICHRANGE	IQUANT	2	Ich Range
ICHRANGEMODE	TOGGLE	T	Ich Auto Range
ICHOFFSETENABLE	TOGGLE	F	Ich Offset Enable
ICHOFFSET	QUANT	0	Ich Offset (V)
ICHFILTER	IQUANT	1	Ich Filter
VCHRANGE	IQUANT	2	Vch Range
VCHRANGEMODE	TOGGLE	T	Vch Auto Range
VCHOFFSETENABLE	TOGGLE	F	Vch Offset Enable
VCHOFFSET	QUANT	0	Vch Offset (V)
VCHFILTER	IQUANT	1	Vch Filter
IERANGELOWERLIMIT	IQUANT	9	I/E Range Lower Limit
IERANGEMODE	TOGGLE	F	I/E AutoRange
IERANGE	IQUANT	10	I/E Range
ACHSELECT	IQUANT	1	Ach Select
ACHRANGE	IQUANT	2	Ach Range
ACHOFFSETENABLE	TOGGLE	F	Ach Offset Enable
ACHOFFSET	QUANT	0	Ach Offset (V)
ACHFILTER	IQUANT	1	Ach Filter
CABLEID	IQUANT	14	Cable ID
DCCALDATE	LABEL	20-10-2016	DC Calibration Date
ACCALDATE	LABEL	12/3/2015	AC Calibration Date
FRAMEWORKVERSION	QUANT	7.01	Framework Version
INSTRUMENTVERSION	LABEL	4.00	Instrument Version
CURVE	TABLE	68
	Pt	T	Vf	Im	Vu	Pwr	Sig	Ach	Temp	IERange	Over
	#	s	V	A	V	W	V	V	deg C	#	bits
	0	0.013333	5.96642E-001	5.99470E-003	0.00000E+000	3.57669E-003	3.59960E-001	-1.08863E+000	3.57690E+000	10	...........
	1	0.026667	6.05002E-001	5.99657E-003	0.00000E+000	3.62793E-003	3.59960E-001	-1.09139E+000	3.57690E+000	10	...........
	2	0.04	6.12706E-001	5.99520E-003	0.00000E+000	3.67329E-003	3.59960E-001	-1.08531E+000	3.57690E+000	10	...........
	3	0.053333	6.20010E-001	5.99622E-003	0.00000E+000	3.71772E-003	3.59960E-001	-1.09104E+000	3.57690E+000	10	...........
	4	0.066667	6.27049E-001	5.99669E-003	0.00000E+000	3.76022E-003	3.59960E-001	-1.09394E+000	3.57690E+000	10	...........
	5	0.08	6.33845E-001	5.99275E-003	0.00000E+000	3.79847E-003	3.59960E-001	-1.08837E+000	3.57690E+000	10	...........
	6	0.093333	6.40565E-001	5.99432E-003	0.00000E+000	3.83975E-003	3.59960E-001	-1.09469E+000	3.57690E+000	10	...........
	7	0.106667	6.47104E-001	5.99150E-003	0.00000E+000	3.87712E-003	3.59960E-001	-1.09778E+000	3.57690E+000	10	...........
	8	0.12	6.53578E-001	5.99368E-003	0.00000E+000	3.91734E-003	3.59960E-001	-1.09252E+000	3.57690E+000	10	...........
	9	0.133333	6.59973E-001	5.99505E-003	0.00000E+000	3.95658E-003	3.59960E-001	-1.09972E+000	3.57690E+000	10	...........
	10	0.146667	6.66327E-001	5.99749E-003	0.00000E+000	3.99629E-003	3.59960E-001	-1.10380E+000	3.57690E+000	10	...........
	11	0.16	6.72573E-001	5.99704E-003	0.00000E+000	4.03344E-003	3.59960E-001	-1.09909E+000	3.57690E+000	10	...........
	12	0.173333	6.78825E-001	5.99430E-003	0.00000E+000	4.06908E-003	3.59960E-001	-1.10625E+000	3.57690E+000	10	...........
	13	0.186667	6.85003E-001	5.99492E-003	0.00000E+000	4.10653E-003	3.59960E-001	-1.11017E+000	3.57690E+000	10	...........
	14	0.2	6.91172E-001	5.99265E-003	0.00000E+000	4.14196E-003	3.59960E-001	-1.10571E+000	3.57690E+000	10	...........
	15	0.213333	6.97305E-001	5.99354E-003	0.00000E+000	4.17932E-003	3.59960E-001	-1.11217E+000	3.57690E+000	10	...........
	16	0.226667	7.03464E-001	5.99587E-003	0.00000E+000	4.21788E-003	3.59960E-001	-1.11624E+000	3.57690E+000	10	...........
	17	0.24	7.09582E-001	5.99591E-003	0.00000E+000	4.25459E-003	3.59960E-001	-1.11158E+000	3.57690E+000	10	...........
	18	0.253333	7.15705E-001	5.99632E-003	0.00000E+000	4.29159E-003	3.59960E-001	-1.11905E+000	3.57690E+000	10	...........
	19	0.266667	7.21805E-001	5.99657E-003	0.00000E+000	4.32835E-003	3.59960E-001	-1.12452E+000	3.57690E+000	10	...........
	20	0.28	7.27836E-001	5.99728E-003	0.00000E+000	4.36503E-003	3.59960E-001	-1.12049E+000	3.57690E+000	10	...........
	21	0.293333	7.33899E-001	5.99786E-003	0.00000E+000	4.40183E-003	3.59960E-001	-1.12838E+000	3.57690E+000	10	...........
	22	0.306667	7.39920E-001	5.99377E-003	0.00000E+000	4.43491E-003	3.59960E-001	-1.13336E+000	3.57690E+000	10	...........
	23	0.32	7.45988E-001	5.99439E-003	0.00000E+000	4.47174E-003	3.59960E-001	-1.12950E+000	3.57690E+000	10	...........
	24	0.333333	7.51989E-001	5.99609E-003	0.00000E+000	4.50899E-003	3.59960E-001	-1.13674E+000	3.57696E+000	10	...........
	25	0.346667	7.58046E-001	5.99811E-003	0.00000E+000	4.54684E-003	3.59960E-001	-1.14149E+000	3.57710E+000	10	...........
	26	0.36	7.64064E-001	5.99517E-003	0.00000E+000	4.58069E-003	3.59960E-001	-1.13664E+000	3.57710E+000	10	...........
	27	0.373333	7.70095E-001	5.99476E-003	0.00000E+000	4.61654E-003	3.59960E-001	-1.14238E+000	3.57710E+000	10	...........
	28	0.386667	7.76095E-001	5.99260E-003	0.00000E+000	4.65083E-003	3.59960E-001	-1.14545E+000	3.57710E+000	10	...........
	29	0.4	7.82121E-001	5.99378E-003	0.00000E+000	4.68786E-003	3.59960E-001	-1.13946E+000	3.57710E+000	10	...........
	30	0.413333	7.88088E-001	5.99147E-003	0.00000E+000	4.72180E-003	3.59960E-001	-1.14406E+000	3.57710E+000	10	...........
	31	0.426667	7.94132E-001	5.99115E-003	0.00000E+000	4.75776E-003	3.59960E-001	-1.14599E+000	3.57710E+000	10	...........
	32	0.44	8.00103E-001	5.99534E-003	0.00000E+000	4.79688E-003	3.59960E-001	-1.13764E+000	3.57710E+000	10	...........
	33	0.453333	8.06075E-001	5.99494E-003	0.00000E+000	4.83237E-003	3.59960E-001	-1.13981E+000	3.57710E+000	10	...........
	34	0.466667	8.12068E-001	5.99515E-003	0.00000E+000	4.86847E-003	3.59960E-001	-1.13978E+000	3.57710E+000	10	...........
	35	0.48	8.18023E-001	5.99767E-003	0.00000E+000	4.90623E-003	3.59960E-001	-1.13023E+000	3.57710E+000	10	...........
	36	0.493333	8.24015E-001	5.99185E-003	0.00000E+000	4.93738E-003	3.59960E-001	-1.13116E+000	3.57710E+000	10	...........
	37	0.506667	8.29975E-001	5.99387E-003	0.00000E+000	4.97477E-003	3.59960E-001	-1.12988E+000	3.57710E+000	10	...........
	38	0.52	8.35916E-001	5.99141E-003	0.00000E+000	5.00832E-003	3.59960E-001	-1.11865E+000	3.57710E+000	10	...........
	39	0.533333	8.41859E-001	5.99639E-003	0.00000E+000	5.04812E-003	3.59960E-001	-1.11842E+000	3.57710E+000	10	...........
	40	0.546667	8.47838E-001	5.99769E-003	0.00000E+000	5.08507E-003	3.59960E-001	-1.11637E+000	3.57710E+000	10	...........
	41	0.56	8.53751E-001	5.99295E-003	0.00000E+000	5.11649E-003	3.59960E-001	-1.10514E+000	3.57710E+000	10	...........
	42	0.573333	8.59661E-001	5.99466E-003	0.00000E+000	5.15337E-003	3.59960E-001	-1.10501E+000	3.57710E+000	10	...........
	43	0.586667	8.65553E-001	5.99620E-003	0.00000E+000	5.19003E-003	3.59960E-001	-1.10376E+000	3.57710E+000	10	...........
	44	0.6	8.71465E-001	5.99287E-003	0.00000E+000	5.22258E-003	3.59960E-001	-1.09356E+000	3.57710E+000	10	...........
	45	0.613333	8.77371E-001	5.99528E-003	0.00000E+000	5.26009E-003	3.59960E-001	-1.09470E+000	3.57710E+000	10	...........
	46	0.626667	8.83238E-001	5.99182E-003	0.00000E+000	5.29221E-003	3.59960E-001	-1.09460E+000	3.57710E+000	10	...........
	47	0.64	8.89117E-001	5.99355E-003	0.00000E+000	5.32897E-003	3.59960E-001	-1.08466E+000	3.57710E+000	10	...........
	48	0.653333	8.94941E-001	5.99406E-003	0.00000E+000	5.36434E-003	3.59960E-001	-1.08608E+000	3.57710E+000	10	...........
	49	0.666667	9.00786E-001	5.99757E-003	0.00000E+000	5.40252E-003	3.59960E-001	-1.08624E+000	3.57710E+000	10	...........
	50	0.68	9.06598E-001	5.99481E-003	0.00000E+000	5.43489E-003	3.59960E-001	-1.07693E+000	3.57710E+000	10	...........
	51	0.693333	9.12425E-001	5.99709E-003	0.00000E+000	5.47189E-003	3.59960E-001	-1.07889E+000	3.57710E+000	10	...........
	52	0.706667	9.18210E-001	5.99359E-003	0.00000E+000	5.50338E-003	3.59960E-001	-1.07983E+000	3.57710E+000	10	...........
	53	0.72	9.24003E-001	5.99535E-003	0.00000E+000	5.53972E-003	3.59960E-001	-1.07099E+000	3.57710E+000	10	...........
	54	0.733333	9.29728E-001	5.99305E-003	0.00000E+000	5.57191E-003	3.59960E-001	-1.07387E+000	3.57710E+000	10	...........
	55	0.746667	9.35438E-001	5.99563E-003	0.00000E+000	5.60853E-003	3.59960E-001	-1.07604E+000	3.57710E+000	10	...........
	56	0.76	9.41125E-001	5.99830E-003	0.00000E+000	5.64515E-003	3.59960E-001	-1.06743E+000	3.57710E+000	10	...........
	57	0.773333	9.46792E-001	5.99641E-003	0.00000E+000	5.67735E-003	3.59960E-001	-1.07074E+000	3.57710E+000	10	...........
	58	0.786667	9.52411E-001	5.99648E-003	0.00000E+000	5.71112E-003	3.59960E-001	-1.07296E+000	3.57710E+000	10	...........
	59	0.8	9.58008E-001	5.99404E-003	0.00000E+000	5.74234E-003	3.59960E-001	-1.06517E+000	3.57710E+000	10	...........
	60	0.813333	9.63575E-001	5.99385E-003	0.00000E+000	5.77553E-003	3.59960E-001	-1.06848E+000	3.57710E+000	10	...........
	61	0.826667	9.69064E-001	5.99283E-003	0.00000E+000	5.80744E-003	3.59960E-001	-1.07134E+000	3.57710E+000	10	...........
	62	0.84	9.74660E-001	5.99047E-003	0.00000E+000	5.83867E-003	3.59960E-001	-1.06374E+000	3.57710E+000	10	...........
	63	0.853333	9.80115E-001	5.99823E-003	0.00000E+000	5.87896E-003	3.59960E-001	-1.06769E+000	3.57710E+000	10	...........
	64	0.866667	9.85531E-001	5.99329E-003	0.00000E+000	5.90657E-003	3.59960E-001	-1.07121E+000	3.57710E+000	10	...........
	65	0.88	9.90948E-001	5.99109E-003	0.00000E+000	5.93686E-003	3.59960E-001	-1.06368E+000	3.57710E+000	10	...........
	66	0.893333	9.96309E-001	5.98998E-003	0.00000E+000	5.96787E-003	3.59960E-001	-1.06731E+000	3.57710E+000	10	...........
	67	0.898333	1.00002E+000	5.99721E-003	0.00000E+000	5.99732E-003	3.59960E-001	-1.06401E+000	3.57710E+000	10	...........
STARTTIMEOFFSET	QUANT	271.3617	Start Time Offset (s)