Folder: Tesis/Data/CV_CRGO300517_1/PWRCCD_CRGO300517_1/CHARGE_DISCHARGE (part 93)

File: CHARGE_#185.DTA
EXPLAIN
TAG	PWR800_CHARGE
TITLE	LABEL	PWR Cyclic Charge Discharge (Cell) - Charge Step	Test &Identifier
DATE	LABEL	22-6-2017	Date
TIME	LABEL	15:43:10	Time
NOTES	NOTES	3	&Notes...
	supercap test cell
	0.6mg
	6M KOH
PSTAT	PSTAT	IFC5000-01520	Potentiostat
CAPACITY	QUANT	1.00000E-003	Capacity (A-hr)
CELLTYPE	SELECTOR	1	&Cell Type
WORKINGCONNECTION	SELECTOR	0	&Working Lead
MAXCHARGETIME	VARIABLEANDUNITS	1.00000E+002	s	1.00000E+002	second(s)	Max &Charge Time
CHARGECURRENT	QUANT	6.00000E-003	&Charge Current (A)
VOLTAGEFINISH	TWOPARAM	F	1.00000E-003	3.60000E+003	&Voltage Finish	 I (A) < 	Max Time(s)
SAMPLETIME	QUANT	1.00000E-002	Sa&mple Period (s)
CHARGESTOPAT1	MULTIPARAM	4	1.00000E+000	Charge Stop At &1	Voltage > Limit	V
CHARGESTOPAT2	MULTIPARAM	0	0.00000E+000	Charge Stop At &2	None	N/A
AESBHCSELECTOR	TOGGLE	F	Save Both Half Cells
IRCOMP	TOGGLE	F	IR &Measure
EOC	QUANT	0	Open Circuit (V)
SEQUENCER	TOGGLE	TRUE	Run as Sequence
PSTATMODEL	IQUANT	53	Pstat Model
PSTATSECTION	LABEL	IFC5000-01520	Pstat Section
PSTATSERIALNO	LABEL	01520	Pstat Serial Number
CTRLMODE	IQUANT	0	Control Mode
ELECTROMETER	IQUANT	1	RE=0 or CS=1
IESTAB	IQUANT	0	I/E Stability
CASPEED	IQUANT	4	Control Amp Speed
CONVENTION	IQUANT	1	Current Convention
ICHRANGE	IQUANT	2	Ich Range
ICHRANGEMODE	TOGGLE	T	Ich Auto Range
ICHOFFSETENABLE	TOGGLE	F	Ich Offset Enable
ICHOFFSET	QUANT	0	Ich Offset (V)
ICHFILTER	IQUANT	1	Ich Filter
VCHRANGE	IQUANT	2	Vch Range
VCHRANGEMODE	TOGGLE	T	Vch Auto Range
VCHOFFSETENABLE	TOGGLE	F	Vch Offset Enable
VCHOFFSET	QUANT	0	Vch Offset (V)
VCHFILTER	IQUANT	1	Vch Filter
IERANGELOWERLIMIT	IQUANT	9	I/E Range Lower Limit
IERANGEMODE	TOGGLE	F	I/E AutoRange
IERANGE	IQUANT	10	I/E Range
ACHSELECT	IQUANT	1	Ach Select
ACHRANGE	IQUANT	2	Ach Range
ACHOFFSETENABLE	TOGGLE	F	Ach Offset Enable
ACHOFFSET	QUANT	0	Ach Offset (V)
ACHFILTER	IQUANT	1	Ach Filter
CABLEID	IQUANT	14	Cable ID
DCCALDATE	LABEL	20-10-2016	DC Calibration Date
ACCALDATE	LABEL	12/3/2015	AC Calibration Date
FRAMEWORKVERSION	QUANT	7.01	Framework Version
INSTRUMENTVERSION	LABEL	4.00	Instrument Version
CURVE	TABLE	66
	Pt	T	Vf	Im	Vu	Pwr	Sig	Ach	Temp	IERange	Over
	#	s	V	A	V	W	V	V	deg C	#	bits
	0	0.013333	6.03662E-001	5.99200E-003	0.00000E+000	3.61714E-003	3.59960E-001	-1.08260E+000	3.57820E+000	10	...........
	1	0.026667	6.12113E-001	5.99149E-003	0.00000E+000	3.66747E-003	3.59960E-001	-1.09319E+000	3.57820E+000	10	...........
	2	0.04	6.19893E-001	5.99285E-003	0.00000E+000	3.71493E-003	3.59960E-001	-1.08434E+000	3.57820E+000	10	...........
	3	0.053333	6.27220E-001	5.99071E-003	0.00000E+000	3.75750E-003	3.59960E-001	-1.08239E+000	3.57820E+000	10	...........
	4	0.066667	6.34260E-001	5.99077E-003	0.00000E+000	3.79970E-003	3.59960E-001	-1.09293E+000	3.57820E+000	10	...........
	5	0.08	6.41176E-001	5.99366E-003	0.00000E+000	3.84299E-003	3.59960E-001	-1.08461E+000	3.57820E+000	10	...........
	6	0.093333	6.47874E-001	5.99112E-003	0.00000E+000	3.88149E-003	3.59960E-001	-1.08250E+000	3.57820E+000	10	...........
	7	0.106667	6.54503E-001	5.99259E-003	0.00000E+000	3.92217E-003	3.59960E-001	-1.09314E+000	3.57820E+000	10	...........
	8	0.12	6.61037E-001	5.99831E-003	0.00000E+000	3.96511E-003	3.59960E-001	-1.08429E+000	3.57820E+000	10	...........
	9	0.133333	6.67501E-001	5.99068E-003	0.00000E+000	3.99879E-003	3.59960E-001	-1.08224E+000	3.57820E+000	10	...........
	10	0.146667	6.73867E-001	5.98760E-003	0.00000E+000	4.03484E-003	3.59960E-001	-1.09313E+000	3.57820E+000	10	...........
	11	0.16	6.80257E-001	5.99682E-003	0.00000E+000	4.07938E-003	3.59960E-001	-1.08464E+000	3.57820E+000	10	...........
	12	0.173333	6.86559E-001	5.99607E-003	0.00000E+000	4.11665E-003	3.59960E-001	-1.08250E+000	3.57820E+000	10	...........
	13	0.186667	6.92844E-001	5.99289E-003	0.00000E+000	4.15214E-003	3.59960E-001	-1.09305E+000	3.57820E+000	10	...........
	14	0.2	6.99085E-001	5.99661E-003	0.00000E+000	4.19214E-003	3.59960E-001	-1.08440E+000	3.57820E+000	10	...........
	15	0.213333	7.05290E-001	6.00081E-003	0.00000E+000	4.23231E-003	3.59960E-001	-1.08242E+000	3.57820E+000	10	...........
	16	0.226667	7.11510E-001	5.99488E-003	0.00000E+000	4.26541E-003	3.59960E-001	-1.09258E+000	3.57820E+000	10	...........
	17	0.24	7.17748E-001	5.99520E-003	0.00000E+000	4.30305E-003	3.59960E-001	-1.08383E+000	3.57820E+000	10	...........
	18	0.253333	7.23932E-001	5.99602E-003	0.00000E+000	4.34071E-003	3.59960E-001	-1.08200E+000	3.57820E+000	10	...........
	19	0.266667	7.30104E-001	5.99913E-003	0.00000E+000	4.37999E-003	3.59960E-001	-1.09257E+000	3.57820E+000	10	...........
	20	0.28	7.36246E-001	5.99308E-003	0.00000E+000	4.41239E-003	3.59960E-001	-1.08399E+000	3.57820E+000	10	...........
	21	0.293333	7.42395E-001	5.99860E-003	0.00000E+000	4.45333E-003	3.59960E-001	-1.08195E+000	3.57820E+000	10	...........
	22	0.306667	7.48486E-001	5.99154E-003	0.00000E+000	4.48458E-003	3.59960E-001	-1.09247E+000	3.57820E+000	10	...........
	23	0.32	7.54576E-001	5.99402E-003	0.00000E+000	4.52294E-003	3.59960E-001	-1.08386E+000	3.57820E+000	10	...........
	24	0.333333	7.60713E-001	5.99365E-003	0.00000E+000	4.55944E-003	3.59960E-001	-1.08177E+000	3.57820E+000	10	...........
	25	0.346667	7.66783E-001	5.99193E-003	0.00000E+000	4.59451E-003	3.59960E-001	-1.09251E+000	3.57820E+000	10	...........
	26	0.36	7.72893E-001	5.99571E-003	0.00000E+000	4.63404E-003	3.59960E-001	-1.08412E+000	3.57820E+000	10	...........
	27	0.373333	7.78996E-001	5.99374E-003	0.00000E+000	4.66910E-003	3.59960E-001	-1.08159E+000	3.57820E+000	10	...........
	28	0.386667	7.85106E-001	5.99372E-003	0.00000E+000	4.70570E-003	3.59960E-001	-1.09198E+000	3.57820E+000	10	...........
	29	0.4	7.91214E-001	5.99481E-003	0.00000E+000	4.74318E-003	3.59960E-001	-1.08375E+000	3.57820E+000	10	...........
	30	0.413333	7.97265E-001	5.98979E-003	0.00000E+000	4.77545E-003	3.59960E-001	-1.08144E+000	3.57820E+000	10	...........
	31	0.426667	8.03326E-001	5.99574E-003	0.00000E+000	4.81654E-003	3.59960E-001	-1.09220E+000	3.57820E+000	10	...........
	32	0.44	8.09406E-001	5.99594E-003	0.00000E+000	4.85315E-003	3.59960E-001	-1.08392E+000	3.57820E+000	10	...........
	33	0.453333	8.15448E-001	5.99232E-003	0.00000E+000	4.88643E-003	3.59960E-001	-1.08166E+000	3.57820E+000	10	...........
	34	0.466667	8.21499E-001	5.99302E-003	0.00000E+000	4.92326E-003	3.59960E-001	-1.09206E+000	3.57820E+000	10	...........
	35	0.48	8.27461E-001	5.99688E-003	0.00000E+000	4.96219E-003	3.59960E-001	-1.08395E+000	3.57820E+000	10	...........
	36	0.493333	8.33501E-001	5.99412E-003	0.00000E+000	4.99610E-003	3.59960E-001	-1.08172E+000	3.57820E+000	10	...........
	37	0.506667	8.39512E-001	5.99305E-003	0.00000E+000	5.03124E-003	3.59960E-001	-1.09210E+000	3.57820E+000	10	...........
	38	0.52	8.45538E-001	5.99233E-003	0.00000E+000	5.06674E-003	3.59960E-001	-1.08379E+000	3.57820E+000	10	...........
	39	0.533333	8.51513E-001	5.99121E-003	0.00000E+000	5.10160E-003	3.59960E-001	-1.08150E+000	3.57820E+000	10	...........
	40	0.546667	8.57525E-001	5.99833E-003	0.00000E+000	5.14372E-003	3.59960E-001	-1.09169E+000	3.57820E+000	10	...........
	41	0.56	8.63485E-001	5.99445E-003	0.00000E+000	5.17611E-003	3.59960E-001	-1.08340E+000	3.57820E+000	10	...........
	42	0.573333	8.69496E-001	5.99377E-003	0.00000E+000	5.21156E-003	3.59960E-001	-1.08087E+000	3.57820E+000	10	...........
	43	0.586667	8.75468E-001	5.99126E-003	0.00000E+000	5.24515E-003	3.59960E-001	-1.09147E+000	3.57820E+000	10	...........
	44	0.6	8.81409E-001	5.99681E-003	0.00000E+000	5.28564E-003	3.59960E-001	-1.08355E+000	3.57820E+000	10	...........
	45	0.613333	8.87332E-001	5.99363E-003	0.00000E+000	5.31835E-003	3.59960E-001	-1.08118E+000	3.57820E+000	10	...........
	46	0.626667	8.93189E-001	5.99117E-003	0.00000E+000	5.35125E-003	3.59960E-001	-1.09158E+000	3.57820E+000	10	...........
	47	0.64	8.99065E-001	5.99414E-003	0.00000E+000	5.38912E-003	3.59960E-001	-1.08366E+000	3.57820E+000	10	...........
	48	0.653333	9.04913E-001	5.99027E-003	0.00000E+000	5.42067E-003	3.59960E-001	-1.08100E+000	3.57820E+000	10	...........
	49	0.666667	9.10787E-001	5.99382E-003	0.00000E+000	5.45910E-003	3.59960E-001	-1.09153E+000	3.57820E+000	10	...........
	50	0.68	9.16591E-001	5.99324E-003	0.00000E+000	5.49335E-003	3.59960E-001	-1.08369E+000	3.57820E+000	10	...........
	51	0.693333	9.22418E-001	5.99219E-003	0.00000E+000	5.52730E-003	3.59960E-001	-1.08109E+000	3.57820E+000	10	...........
	52	0.706667	9.28185E-001	5.99073E-003	0.00000E+000	5.56050E-003	3.59960E-001	-1.09140E+000	3.57820E+000	10	...........
	53	0.72	9.33941E-001	5.99083E-003	0.00000E+000	5.59508E-003	3.59960E-001	-1.08351E+000	3.57820E+000	10	...........
	54	0.733333	9.39698E-001	5.99201E-003	0.00000E+000	5.63068E-003	3.59960E-001	-1.08089E+000	3.57820E+000	10	...........
	55	0.746667	9.45424E-001	5.99276E-003	0.00000E+000	5.66570E-003	3.59960E-001	-1.09139E+000	3.57820E+000	10	...........
	56	0.76	9.51102E-001	5.99084E-003	0.00000E+000	5.69790E-003	3.59960E-001	-1.08345E+000	3.57820E+000	10	...........
	57	0.773333	9.56717E-001	5.99685E-003	0.00000E+000	5.73728E-003	3.59960E-001	-1.08102E+000	3.57820E+000	10	...........
	58	0.786667	9.62331E-001	5.99201E-003	0.00000E+000	5.76630E-003	3.59960E-001	-1.09151E+000	3.57820E+000	10	...........
	59	0.8	9.67855E-001	5.99608E-003	0.00000E+000	5.80333E-003	3.59960E-001	-1.08358E+000	3.57820E+000	10	...........
	60	0.813333	9.73453E-001	5.99075E-003	0.00000E+000	5.83171E-003	3.59960E-001	-1.08105E+000	3.57820E+000	10	...........
	61	0.826667	9.78941E-001	5.99042E-003	0.00000E+000	5.86427E-003	3.59960E-001	-1.09170E+000	3.57820E+000	10	...........
	62	0.84	9.84396E-001	5.99374E-003	0.00000E+000	5.90021E-003	3.59960E-001	-1.08372E+000	3.57820E+000	10	...........
	63	0.853333	9.89839E-001	5.99832E-003	0.00000E+000	5.93737E-003	3.59960E-001	-1.08085E+000	3.57820E+000	10	...........
	64	0.866667	9.95183E-001	5.99199E-003	0.00000E+000	5.96313E-003	3.59960E-001	-1.09101E+000	3.57820E+000	10	...........
	65	0.873333	9.99221E-001	5.99358E-003	0.00000E+000	5.98891E-003	3.59960E-001	-1.07296E+000	3.57820E+000	10	...........
STARTTIMEOFFSET	QUANT	347.0285	Start Time Offset (s)

File: CHARGE_#186.DTA
EXPLAIN
TAG	PWR800_CHARGE
TITLE	LABEL	PWR Cyclic Charge Discharge (Cell) - Charge Step	Test &Identifier
DATE	LABEL	22-6-2017	Date
TIME	LABEL	15:43:13	Time
NOTES	NOTES	3	&Notes...
	supercap test cell
	0.6mg
	6M KOH
PSTAT	PSTAT	IFC5000-01520	Potentiostat
CAPACITY	QUANT	1.00000E-003	Capacity (A-hr)
CELLTYPE	SELECTOR	1	&Cell Type
WORKINGCONNECTION	SELECTOR	0	&Working Lead
MAXCHARGETIME	VARIABLEANDUNITS	1.00000E+002	s	1.00000E+002	second(s)	Max &Charge Time
CHARGECURRENT	QUANT	6.00000E-003	&Charge Current (A)
VOLTAGEFINISH	TWOPARAM	F	1.00000E-003	3.60000E+003	&Voltage Finish	 I (A) < 	Max Time(s)
SAMPLETIME	QUANT	1.00000E-002	Sa&mple Period (s)
CHARGESTOPAT1	MULTIPARAM	4	1.00000E+000	Charge Stop At &1	Voltage > Limit	V
CHARGESTOPAT2	MULTIPARAM	0	0.00000E+000	Charge Stop At &2	None	N/A
AESBHCSELECTOR	TOGGLE	F	Save Both Half Cells
IRCOMP	TOGGLE	F	IR &Measure
EOC	QUANT	0	Open Circuit (V)
SEQUENCER	TOGGLE	TRUE	Run as Sequence
PSTATMODEL	IQUANT	53	Pstat Model
PSTATSECTION	LABEL	IFC5000-01520	Pstat Section
PSTATSERIALNO	LABEL	01520	Pstat Serial Number
CTRLMODE	IQUANT	0	Control Mode
ELECTROMETER	IQUANT	1	RE=0 or CS=1
IESTAB	IQUANT	0	I/E Stability
CASPEED	IQUANT	4	Control Amp Speed
CONVENTION	IQUANT	1	Current Convention
ICHRANGE	IQUANT	2	Ich Range
ICHRANGEMODE	TOGGLE	T	Ich Auto Range
ICHOFFSETENABLE	TOGGLE	F	Ich Offset Enable
ICHOFFSET	QUANT	0	Ich Offset (V)
ICHFILTER	IQUANT	1	Ich Filter
VCHRANGE	IQUANT	2	Vch Range
VCHRANGEMODE	TOGGLE	T	Vch Auto Range
VCHOFFSETENABLE	TOGGLE	F	Vch Offset Enable
VCHOFFSET	QUANT	0	Vch Offset (V)
VCHFILTER	IQUANT	1	Vch Filter
IERANGELOWERLIMIT	IQUANT	9	I/E Range Lower Limit
IERANGEMODE	TOGGLE	F	I/E AutoRange
IERANGE	IQUANT	10	I/E Range
ACHSELECT	IQUANT	1	Ach Select
ACHRANGE	IQUANT	2	Ach Range
ACHOFFSETENABLE	TOGGLE	F	Ach Offset Enable
ACHOFFSET	QUANT	0	Ach Offset (V)
ACHFILTER	IQUANT	1	Ach Filter
CABLEID	IQUANT	14	Cable ID
DCCALDATE	LABEL	20-10-2016	DC Calibration Date
ACCALDATE	LABEL	12/3/2015	AC Calibration Date
FRAMEWORKVERSION	QUANT	7.01	Framework Version
INSTRUMENTVERSION	LABEL	4.00	Instrument Version
CURVE	TABLE	66
	Pt	T	Vf	Im	Vu	Pwr	Sig	Ach	Temp	IERange	Over
	#	s	V	A	V	W	V	V	deg C	#	bits
	0	0.013333	6.03569E-001	5.99604E-003	0.00000E+000	3.61902E-003	3.59960E-001	-1.09332E+000	3.57750E+000	10	...........
	1	0.026667	6.11983E-001	5.99573E-003	0.00000E+000	3.66929E-003	3.59960E-001	-1.08320E+000	3.57750E+000	10	...........
	2	0.04	6.19788E-001	6.00054E-003	0.00000E+000	3.71907E-003	3.59960E-001	-1.08409E+000	3.57750E+000	10	...........
	3	0.053333	6.27097E-001	5.98901E-003	0.00000E+000	3.75569E-003	3.59960E-001	-1.09295E+000	3.57750E+000	10	...........
	4	0.066667	6.34124E-001	5.99373E-003	0.00000E+000	3.80077E-003	3.59960E-001	-1.08289E+000	3.57750E+000	10	...........
	5	0.08	6.41028E-001	5.99420E-003	0.00000E+000	3.84245E-003	3.59960E-001	-1.08383E+000	3.57750E+000	10	...........
	6	0.093333	6.47788E-001	5.99401E-003	0.00000E+000	3.88285E-003	3.59960E-001	-1.09310E+000	3.57750E+000	10	...........
	7	0.106667	6.54444E-001	5.99679E-003	0.00000E+000	3.92456E-003	3.59960E-001	-1.08283E+000	3.57750E+000	10	...........
	8	0.12	6.60982E-001	5.99318E-003	0.00000E+000	3.96138E-003	3.59960E-001	-1.08372E+000	3.57750E+000	10	...........
	9	0.133333	6.67436E-001	5.99398E-003	0.00000E+000	4.00060E-003	3.59960E-001	-1.09285E+000	3.57750E+000	10	...........
	10	0.146667	6.73842E-001	5.99255E-003	0.00000E+000	4.03803E-003	3.59960E-001	-1.08298E+000	3.57750E+000	10	...........
	11	0.16	6.80243E-001	5.99222E-003	0.00000E+000	4.07616E-003	3.59960E-001	-1.08407E+000	3.57750E+000	10	...........
	12	0.173333	6.86552E-001	5.99396E-003	0.00000E+000	4.11516E-003	3.59960E-001	-1.09313E+000	3.57750E+000	10	...........
	13	0.186667	6.92850E-001	5.99316E-003	0.00000E+000	4.15236E-003	3.59960E-001	-1.08301E+000	3.57750E+000	10	...........
	14	0.2	6.99079E-001	5.99273E-003	0.00000E+000	4.18939E-003	3.59960E-001	-1.08374E+000	3.57750E+000	10	...........
	15	0.213333	7.05304E-001	5.99340E-003	0.00000E+000	4.22716E-003	3.59960E-001	-1.09305E+000	3.57750E+000	10	...........
	16	0.226667	7.11491E-001	5.99228E-003	0.00000E+000	4.26345E-003	3.59960E-001	-1.08299E+000	3.57750E+000	10	...........
	17	0.24	7.17702E-001	5.99087E-003	0.00000E+000	4.29966E-003	3.59960E-001	-1.08368E+000	3.57750E+000	10	...........
	18	0.253333	7.23863E-001	5.99479E-003	0.00000E+000	4.33941E-003	3.59960E-001	-1.09287E+000	3.57750E+000	10	...........
	19	0.266667	7.29999E-001	5.99416E-003	0.00000E+000	4.37573E-003	3.59960E-001	-1.08243E+000	3.57750E+000	10	...........
	20	0.28	7.36118E-001	6.00005E-003	0.00000E+000	4.41674E-003	3.59960E-001	-1.08343E+000	3.57750E+000	10	...........
	21	0.293333	7.42295E-001	5.99491E-003	0.00000E+000	4.44999E-003	3.59960E-001	-1.09267E+000	3.57750E+000	10	...........
	22	0.306667	7.48405E-001	5.99427E-003	0.00000E+000	4.48614E-003	3.59960E-001	-1.08227E+000	3.57750E+000	10	...........
	23	0.32	7.54544E-001	5.99634E-003	0.00000E+000	4.52450E-003	3.59960E-001	-1.08304E+000	3.57750E+000	10	...........
	24	0.333333	7.60671E-001	5.99188E-003	0.00000E+000	4.55785E-003	3.59960E-001	-1.09255E+000	3.57750E+000	10	...........
	25	0.346667	7.66745E-001	5.99192E-003	0.00000E+000	4.59428E-003	3.59960E-001	-1.08229E+000	3.57750E+000	10	...........
	26	0.36	7.72880E-001	5.99428E-003	0.00000E+000	4.63286E-003	3.59960E-001	-1.08305E+000	3.57750E+000	10	...........
	27	0.373333	7.78962E-001	5.99317E-003	0.00000E+000	4.66845E-003	3.59960E-001	-1.09264E+000	3.57750E+000	10	...........
	28	0.386667	7.85026E-001	5.99241E-003	0.00000E+000	4.70420E-003	3.59960E-001	-1.08229E+000	3.57750E+000	10	...........
	29	0.4	7.91085E-001	5.99354E-003	0.00000E+000	4.74140E-003	3.59960E-001	-1.08271E+000	3.57750E+000	10	...........
	30	0.413333	7.97212E-001	5.99356E-003	0.00000E+000	4.77814E-003	3.59960E-001	-1.09246E+000	3.57750E+000	10	...........
	31	0.426667	8.03277E-001	5.99614E-003	0.00000E+000	4.81656E-003	3.59960E-001	-1.08242E+000	3.57750E+000	10	...........
	32	0.44	8.09306E-001	5.99475E-003	0.00000E+000	4.85159E-003	3.59960E-001	-1.08288E+000	3.57750E+000	10	...........
	33	0.453333	8.15357E-001	5.99543E-003	0.00000E+000	4.88841E-003	3.59960E-001	-1.09231E+000	3.57750E+000	10	...........
	34	0.466667	8.21393E-001	5.99347E-003	0.00000E+000	4.92299E-003	3.59960E-001	-1.08243E+000	3.57750E+000	10	...........
	35	0.48	8.27423E-001	5.99119E-003	0.00000E+000	4.95725E-003	3.59960E-001	-1.08293E+000	3.57750E+000	10	...........
	36	0.493333	8.33434E-001	5.99044E-003	0.00000E+000	4.99264E-003	3.59960E-001	-1.09260E+000	3.57750E+000	10	...........
	37	0.506667	8.39436E-001	5.99349E-003	0.00000E+000	5.03115E-003	3.59960E-001	-1.08242E+000	3.57750E+000	10	...........
	38	0.52	8.45473E-001	5.99320E-003	0.00000E+000	5.06709E-003	3.59960E-001	-1.08284E+000	3.57750E+000	10	...........
	39	0.533333	8.51472E-001	5.99530E-003	0.00000E+000	5.10483E-003	3.59960E-001	-1.09264E+000	3.57750E+000	10	...........
	40	0.546667	8.57465E-001	5.99021E-003	0.00000E+000	5.13640E-003	3.59960E-001	-1.08250E+000	3.57750E+000	10	...........
	41	0.56	8.63431E-001	5.99320E-003	0.00000E+000	5.17471E-003	3.59960E-001	-1.08277E+000	3.57750E+000	10	...........
	42	0.573333	8.69367E-001	5.99181E-003	0.00000E+000	5.20908E-003	3.59960E-001	-1.09235E+000	3.57750E+000	10	...........
	43	0.586667	8.75337E-001	5.99574E-003	0.00000E+000	5.24829E-003	3.59960E-001	-1.08211E+000	3.57750E+000	10	...........
	44	0.6	8.81283E-001	5.99239E-003	0.00000E+000	5.28099E-003	3.59960E-001	-1.08232E+000	3.57750E+000	10	...........
	45	0.613333	8.87196E-001	5.99361E-003	0.00000E+000	5.31751E-003	3.59960E-001	-1.09231E+000	3.57750E+000	10	...........
	46	0.626667	8.93096E-001	5.99957E-003	0.00000E+000	5.35819E-003	3.59960E-001	-1.08230E+000	3.57750E+000	10	...........
	47	0.64	8.98957E-001	5.99524E-003	0.00000E+000	5.38946E-003	3.59960E-001	-1.08245E+000	3.57750E+000	10	...........
	48	0.653333	9.04823E-001	5.98904E-003	0.00000E+000	5.41901E-003	3.59960E-001	-1.09223E+000	3.57750E+000	10	...........
	49	0.666667	9.10707E-001	5.99313E-003	0.00000E+000	5.45799E-003	3.59960E-001	-1.08232E+000	3.57750E+000	10	...........
	50	0.68	9.16512E-001	5.99437E-003	0.00000E+000	5.49391E-003	3.59960E-001	-1.08213E+000	3.57750E+000	10	...........
	51	0.693333	9.22373E-001	5.99629E-003	0.00000E+000	5.53082E-003	3.59960E-001	-1.09235E+000	3.57750E+000	10	...........
	52	0.706667	9.28126E-001	5.99266E-003	0.00000E+000	5.56195E-003	3.59960E-001	-1.08228E+000	3.57750E+000	10	...........
	53	0.72	9.33845E-001	5.99178E-003	0.00000E+000	5.59539E-003	3.59960E-001	-1.08214E+000	3.57750E+000	10	...........
	54	0.733333	9.39584E-001	5.99580E-003	0.00000E+000	5.63356E-003	3.59960E-001	-1.09207E+000	3.57750E+000	10	...........
	55	0.746667	9.45289E-001	5.99066E-003	0.00000E+000	5.66291E-003	3.59960E-001	-1.08200E+000	3.57750E+000	10	...........
	56	0.76	9.51016E-001	5.99530E-003	0.00000E+000	5.70163E-003	3.59960E-001	-1.08203E+000	3.57750E+000	10	...........
	57	0.773333	9.56647E-001	5.99156E-003	0.00000E+000	5.73181E-003	3.59960E-001	-1.09207E+000	3.57750E+000	10	...........
	58	0.786667	9.62254E-001	5.99743E-003	0.00000E+000	5.77105E-003	3.59960E-001	-1.08220E+000	3.57750E+000	10	...........
	59	0.8	9.67812E-001	5.99045E-003	0.00000E+000	5.79763E-003	3.59960E-001	-1.08196E+000	3.57750E+000	10	...........
	60	0.813333	9.73409E-001	5.99397E-003	0.00000E+000	5.83458E-003	3.59960E-001	-1.09222E+000	3.57750E+000	10	...........
	61	0.826667	9.78910E-001	5.99403E-003	0.00000E+000	5.86762E-003	3.59960E-001	-1.08230E+000	3.57750E+000	10	...........
	62	0.84	9.84384E-001	5.99418E-003	0.00000E+000	5.90057E-003	3.59960E-001	-1.08217E+000	3.57750E+000	10	...........
	63	0.853333	9.89783E-001	5.99590E-003	0.00000E+000	5.93464E-003	3.59960E-001	-1.09218E+000	3.57750E+000	10	...........
	64	0.866667	9.95175E-001	5.99126E-003	0.00000E+000	5.96235E-003	3.59960E-001	-1.08210E+000	3.57750E+000	10	...........
	65	0.873333	9.99226E-001	5.99621E-003	0.00000E+000	5.99157E-003	3.59960E-001	-1.09203E+000	3.57750E+000	10	...........
STARTTIMEOFFSET	QUANT	348.7651	Start Time Offset (s)