Folder: Tesis/Data/CV_CRGO300517_1/PWRCCD_CRGO300517_1/CHARGE_DISCHARGE (part 157)

File: CHARGE_#319.DTA
EXPLAIN
TAG	PWR800_CHARGE
TITLE	LABEL	PWR Cyclic Charge Discharge (Cell) - Charge Step	Test &Identifier
DATE	LABEL	22-6-2017	Date
TIME	LABEL	15:48:42	Time
NOTES	NOTES	3	&Notes...
	supercap test cell
	0.6mg
	6M KOH
PSTAT	PSTAT	IFC5000-01520	Potentiostat
CAPACITY	QUANT	1.00000E-003	Capacity (A-hr)
CELLTYPE	SELECTOR	1	&Cell Type
WORKINGCONNECTION	SELECTOR	0	&Working Lead
MAXCHARGETIME	VARIABLEANDUNITS	1.00000E+002	s	1.00000E+002	second(s)	Max &Charge Time
CHARGECURRENT	QUANT	6.00000E-003	&Charge Current (A)
VOLTAGEFINISH	TWOPARAM	F	1.00000E-003	3.60000E+003	&Voltage Finish	 I (A) < 	Max Time(s)
SAMPLETIME	QUANT	1.00000E-002	Sa&mple Period (s)
CHARGESTOPAT1	MULTIPARAM	4	1.00000E+000	Charge Stop At &1	Voltage > Limit	V
CHARGESTOPAT2	MULTIPARAM	0	0.00000E+000	Charge Stop At &2	None	N/A
AESBHCSELECTOR	TOGGLE	F	Save Both Half Cells
IRCOMP	TOGGLE	F	IR &Measure
EOC	QUANT	0	Open Circuit (V)
SEQUENCER	TOGGLE	TRUE	Run as Sequence
PSTATMODEL	IQUANT	53	Pstat Model
PSTATSECTION	LABEL	IFC5000-01520	Pstat Section
PSTATSERIALNO	LABEL	01520	Pstat Serial Number
CTRLMODE	IQUANT	0	Control Mode
ELECTROMETER	IQUANT	1	RE=0 or CS=1
IESTAB	IQUANT	0	I/E Stability
CASPEED	IQUANT	4	Control Amp Speed
CONVENTION	IQUANT	1	Current Convention
ICHRANGE	IQUANT	2	Ich Range
ICHRANGEMODE	TOGGLE	T	Ich Auto Range
ICHOFFSETENABLE	TOGGLE	F	Ich Offset Enable
ICHOFFSET	QUANT	0	Ich Offset (V)
ICHFILTER	IQUANT	1	Ich Filter
VCHRANGE	IQUANT	2	Vch Range
VCHRANGEMODE	TOGGLE	T	Vch Auto Range
VCHOFFSETENABLE	TOGGLE	F	Vch Offset Enable
VCHOFFSET	QUANT	0	Vch Offset (V)
VCHFILTER	IQUANT	1	Vch Filter
IERANGELOWERLIMIT	IQUANT	9	I/E Range Lower Limit
IERANGEMODE	TOGGLE	F	I/E AutoRange
IERANGE	IQUANT	10	I/E Range
ACHSELECT	IQUANT	1	Ach Select
ACHRANGE	IQUANT	2	Ach Range
ACHOFFSETENABLE	TOGGLE	F	Ach Offset Enable
ACHOFFSET	QUANT	0	Ach Offset (V)
ACHFILTER	IQUANT	1	Ach Filter
CABLEID	IQUANT	14	Cable ID
DCCALDATE	LABEL	20-10-2016	DC Calibration Date
ACCALDATE	LABEL	12/3/2015	AC Calibration Date
FRAMEWORKVERSION	QUANT	7.01	Framework Version
INSTRUMENTVERSION	LABEL	4.00	Instrument Version
CURVE	TABLE	62
	Pt	T	Vf	Im	Vu	Pwr	Sig	Ach	Temp	IERange	Over
	#	s	V	A	V	W	V	V	deg C	#	bits
	0	0.013333	6.18438E-001	5.99720E-003	0.00000E+000	3.70890E-003	3.59960E-001	-1.11638E+000	3.57680E+000	10	...........
	1	0.026667	6.27059E-001	5.99240E-003	0.00000E+000	3.75759E-003	3.59960E-001	-1.11418E+000	3.57680E+000	10	...........
	2	0.04	6.34997E-001	5.99685E-003	0.00000E+000	3.80798E-003	3.59960E-001	-1.10830E+000	3.57680E+000	10	...........
	3	0.053333	6.42598E-001	5.99453E-003	0.00000E+000	3.85207E-003	3.59960E-001	-1.11581E+000	3.57680E+000	10	...........
	4	0.066667	6.49830E-001	5.99125E-003	0.00000E+000	3.89329E-003	3.59960E-001	-1.11395E+000	3.57680E+000	10	...........
	5	0.08	6.56895E-001	5.99938E-003	0.00000E+000	3.94096E-003	3.59960E-001	-1.10770E+000	3.57680E+000	10	...........
	6	0.093333	6.63805E-001	5.99134E-003	0.00000E+000	3.97708E-003	3.59960E-001	-1.11522E+000	3.57680E+000	10	...........
	7	0.106667	6.70655E-001	5.99571E-003	0.00000E+000	4.02105E-003	3.59960E-001	-1.11376E+000	3.57680E+000	10	...........
	8	0.12	6.77341E-001	5.99544E-003	0.00000E+000	4.06096E-003	3.59960E-001	-1.10767E+000	3.57680E+000	10	...........
	9	0.133333	6.83985E-001	5.99790E-003	0.00000E+000	4.10247E-003	3.59960E-001	-1.11500E+000	3.57680E+000	10	...........
	10	0.146667	6.90575E-001	5.99468E-003	0.00000E+000	4.13977E-003	3.59960E-001	-1.11385E+000	3.57680E+000	10	...........
	11	0.16	6.97097E-001	5.99005E-003	0.00000E+000	4.17564E-003	3.59960E-001	-1.10731E+000	3.57680E+000	10	...........
	12	0.173333	7.03632E-001	6.00344E-003	0.00000E+000	4.22421E-003	3.59960E-001	-1.11458E+000	3.57680E+000	10	...........
	13	0.186667	7.10106E-001	5.99566E-003	0.00000E+000	4.25755E-003	3.59960E-001	-1.11384E+000	3.57680E+000	10	...........
	14	0.2	7.16557E-001	5.99631E-003	0.00000E+000	4.29669E-003	3.59960E-001	-1.10733E+000	3.57680E+000	10	...........
	15	0.213333	7.22983E-001	5.99637E-003	0.00000E+000	4.33527E-003	3.59960E-001	-1.11443E+000	3.57680E+000	10	...........
	16	0.226667	7.29404E-001	5.99082E-003	0.00000E+000	4.36973E-003	3.59960E-001	-1.11374E+000	3.57680E+000	10	...........
	17	0.24	7.35774E-001	5.99322E-003	0.00000E+000	4.40965E-003	3.59960E-001	-1.10706E+000	3.57680E+000	10	...........
	18	0.253333	7.42156E-001	5.98996E-003	0.00000E+000	4.44549E-003	3.59960E-001	-1.11407E+000	3.57680E+000	10	...........
	19	0.266667	7.48502E-001	5.99531E-003	0.00000E+000	4.48751E-003	3.59960E-001	-1.11385E+000	3.57680E+000	10	...........
	20	0.28	7.54801E-001	5.99405E-003	0.00000E+000	4.52432E-003	3.59960E-001	-1.10676E+000	3.57680E+000	10	...........
	21	0.293333	7.61152E-001	5.99372E-003	0.00000E+000	4.56213E-003	3.59960E-001	-1.11347E+000	3.57680E+000	10	...........
	22	0.306667	7.67448E-001	5.99165E-003	0.00000E+000	4.59828E-003	3.59960E-001	-1.11393E+000	3.57680E+000	10	...........
	23	0.32	7.73760E-001	5.99447E-003	0.00000E+000	4.63828E-003	3.59960E-001	-1.10684E+000	3.57680E+000	10	...........
	24	0.333333	7.80024E-001	5.98882E-003	0.00000E+000	4.67142E-003	3.59960E-001	-1.11337E+000	3.57680E+000	10	...........
	25	0.346667	7.86269E-001	5.99250E-003	0.00000E+000	4.71171E-003	3.59960E-001	-1.11398E+000	3.57680E+000	10	...........
	26	0.36	7.92565E-001	5.99528E-003	0.00000E+000	4.75165E-003	3.59960E-001	-1.10656E+000	3.57680E+000	10	...........
	27	0.373333	7.98828E-001	5.99574E-003	0.00000E+000	4.78957E-003	3.59960E-001	-1.11292E+000	3.57680E+000	10	...........
	28	0.386667	8.05038E-001	5.99297E-003	0.00000E+000	4.82457E-003	3.59960E-001	-1.11376E+000	3.57680E+000	10	...........
	29	0.4	8.11284E-001	5.99290E-003	0.00000E+000	4.86195E-003	3.59960E-001	-1.10623E+000	3.57680E+000	10	...........
	30	0.413333	8.17528E-001	5.99463E-003	0.00000E+000	4.90077E-003	3.59960E-001	-1.11260E+000	3.57680E+000	10	...........
	31	0.426667	8.23734E-001	5.99628E-003	0.00000E+000	4.93934E-003	3.59960E-001	-1.11391E+000	3.57680E+000	10	...........
	32	0.44	8.29919E-001	5.99311E-003	0.00000E+000	4.97380E-003	3.59960E-001	-1.10637E+000	3.57680E+000	10	...........
	33	0.453333	8.36081E-001	5.99490E-003	0.00000E+000	5.01222E-003	3.59960E-001	-1.11270E+000	3.57680E+000	10	...........
	34	0.466667	8.42238E-001	5.99071E-003	0.00000E+000	5.04561E-003	3.59960E-001	-1.11411E+000	3.57680E+000	10	...........
	35	0.48	8.48410E-001	5.99609E-003	0.00000E+000	5.08714E-003	3.59960E-001	-1.10658E+000	3.57680E+000	10	...........
	36	0.493333	8.54595E-001	5.99638E-003	0.00000E+000	5.12448E-003	3.59960E-001	-1.11227E+000	3.57680E+000	10	...........
	37	0.506667	8.60743E-001	5.99303E-003	0.00000E+000	5.15846E-003	3.59960E-001	-1.11421E+000	3.57680E+000	10	...........
	38	0.52	8.66834E-001	5.99390E-003	0.00000E+000	5.19571E-003	3.59960E-001	-1.10658E+000	3.57680E+000	10	...........
	39	0.533333	8.72936E-001	5.99639E-003	0.00000E+000	5.23446E-003	3.59960E-001	-1.11218E+000	3.57680E+000	10	...........
	40	0.546667	8.79030E-001	5.99643E-003	0.00000E+000	5.27105E-003	3.59960E-001	-1.11434E+000	3.57680E+000	10	...........
	41	0.56	8.85099E-001	5.99614E-003	0.00000E+000	5.30718E-003	3.59960E-001	-1.10662E+000	3.57680E+000	10	...........
	42	0.573333	8.91144E-001	5.99574E-003	0.00000E+000	5.34307E-003	3.59960E-001	-1.11215E+000	3.57680E+000	10	...........
	43	0.586667	8.97161E-001	5.99275E-003	0.00000E+000	5.37646E-003	3.59960E-001	-1.11482E+000	3.57680E+000	10	...........
	44	0.6	9.03129E-001	5.99333E-003	0.00000E+000	5.41276E-003	3.59960E-001	-1.10701E+000	3.57680E+000	10	...........
	45	0.613333	9.09104E-001	5.99431E-003	0.00000E+000	5.44945E-003	3.59960E-001	-1.11204E+000	3.57680E+000	10	...........
	46	0.626667	9.15056E-001	5.99524E-003	0.00000E+000	5.48598E-003	3.59960E-001	-1.11493E+000	3.57680E+000	10	...........
	47	0.64	9.21004E-001	5.99397E-003	0.00000E+000	5.52047E-003	3.59960E-001	-1.10712E+000	3.57680E+000	10	...........
	48	0.653333	9.26908E-001	5.98726E-003	0.00000E+000	5.54964E-003	3.59960E-001	-1.11206E+000	3.57680E+000	10	...........
	49	0.666667	9.32737E-001	5.99209E-003	0.00000E+000	5.58904E-003	3.59960E-001	-1.11523E+000	3.57680E+000	10	...........
	50	0.68	9.38566E-001	5.99685E-003	0.00000E+000	5.62844E-003	3.59960E-001	-1.10707E+000	3.57680E+000	10	...........
	51	0.693333	9.44365E-001	5.99247E-003	0.00000E+000	5.65907E-003	3.59960E-001	-1.11156E+000	3.57680E+000	10	...........
	52	0.706667	9.50187E-001	5.99822E-003	0.00000E+000	5.69943E-003	3.59960E-001	-1.11544E+000	3.57680E+000	10	...........
	53	0.72	9.55924E-001	6.00012E-003	0.00000E+000	5.73566E-003	3.59960E-001	-1.10704E+000	3.57680E+000	10	...........
	54	0.733333	9.61562E-001	5.98978E-003	0.00000E+000	5.75954E-003	3.59960E-001	-1.11161E+000	3.57680E+000	10	...........
	55	0.746667	9.67233E-001	5.99384E-003	0.00000E+000	5.79744E-003	3.59960E-001	-1.11548E+000	3.57680E+000	10	...........
	56	0.76	9.72868E-001	5.99030E-003	0.00000E+000	5.82777E-003	3.59960E-001	-1.10721E+000	3.57680E+000	10	...........
	57	0.773333	9.78455E-001	5.99381E-003	0.00000E+000	5.86467E-003	3.59960E-001	-1.11140E+000	3.57740E+000	10	...........
	58	0.786667	9.83978E-001	5.99576E-003	0.00000E+000	5.89970E-003	3.59960E-001	-1.11565E+000	3.57800E+000	10	...........
	59	0.8	9.89493E-001	5.99469E-003	0.00000E+000	5.93170E-003	3.59960E-001	-1.10696E+000	3.57800E+000	10	...........
	60	0.813333	9.94911E-001	5.98912E-003	0.00000E+000	5.95864E-003	3.59960E-001	-1.11112E+000	3.57800E+000	10	...........
	61	0.82	9.99011E-001	5.99479E-003	0.00000E+000	5.98886E-003	3.59960E-001	-1.11143E+000	3.57800E+000	10	...........
STARTTIMEOFFSET	QUANT	572.3065	Start Time Offset (s)

File: CHARGE_#320.DTA
EXPLAIN
TAG	PWR800_CHARGE
TITLE	LABEL	PWR Cyclic Charge Discharge (Cell) - Charge Step	Test &Identifier
DATE	LABEL	22-6-2017	Date
TIME	LABEL	15:48:44	Time
NOTES	NOTES	3	&Notes...
	supercap test cell
	0.6mg
	6M KOH
PSTAT	PSTAT	IFC5000-01520	Potentiostat
CAPACITY	QUANT	1.00000E-003	Capacity (A-hr)
CELLTYPE	SELECTOR	1	&Cell Type
WORKINGCONNECTION	SELECTOR	0	&Working Lead
MAXCHARGETIME	VARIABLEANDUNITS	1.00000E+002	s	1.00000E+002	second(s)	Max &Charge Time
CHARGECURRENT	QUANT	6.00000E-003	&Charge Current (A)
VOLTAGEFINISH	TWOPARAM	F	1.00000E-003	3.60000E+003	&Voltage Finish	 I (A) < 	Max Time(s)
SAMPLETIME	QUANT	1.00000E-002	Sa&mple Period (s)
CHARGESTOPAT1	MULTIPARAM	4	1.00000E+000	Charge Stop At &1	Voltage > Limit	V
CHARGESTOPAT2	MULTIPARAM	0	0.00000E+000	Charge Stop At &2	None	N/A
AESBHCSELECTOR	TOGGLE	F	Save Both Half Cells
IRCOMP	TOGGLE	F	IR &Measure
EOC	QUANT	0	Open Circuit (V)
SEQUENCER	TOGGLE	TRUE	Run as Sequence
PSTATMODEL	IQUANT	53	Pstat Model
PSTATSECTION	LABEL	IFC5000-01520	Pstat Section
PSTATSERIALNO	LABEL	01520	Pstat Serial Number
CTRLMODE	IQUANT	0	Control Mode
ELECTROMETER	IQUANT	1	RE=0 or CS=1
IESTAB	IQUANT	0	I/E Stability
CASPEED	IQUANT	4	Control Amp Speed
CONVENTION	IQUANT	1	Current Convention
ICHRANGE	IQUANT	2	Ich Range
ICHRANGEMODE	TOGGLE	T	Ich Auto Range
ICHOFFSETENABLE	TOGGLE	F	Ich Offset Enable
ICHOFFSET	QUANT	0	Ich Offset (V)
ICHFILTER	IQUANT	1	Ich Filter
VCHRANGE	IQUANT	2	Vch Range
VCHRANGEMODE	TOGGLE	T	Vch Auto Range
VCHOFFSETENABLE	TOGGLE	F	Vch Offset Enable
VCHOFFSET	QUANT	0	Vch Offset (V)
VCHFILTER	IQUANT	1	Vch Filter
IERANGELOWERLIMIT	IQUANT	9	I/E Range Lower Limit
IERANGEMODE	TOGGLE	F	I/E AutoRange
IERANGE	IQUANT	10	I/E Range
ACHSELECT	IQUANT	1	Ach Select
ACHRANGE	IQUANT	2	Ach Range
ACHOFFSETENABLE	TOGGLE	F	Ach Offset Enable
ACHOFFSET	QUANT	0	Ach Offset (V)
ACHFILTER	IQUANT	1	Ach Filter
CABLEID	IQUANT	14	Cable ID
DCCALDATE	LABEL	20-10-2016	DC Calibration Date
ACCALDATE	LABEL	12/3/2015	AC Calibration Date
FRAMEWORKVERSION	QUANT	7.01	Framework Version
INSTRUMENTVERSION	LABEL	4.00	Instrument Version
CURVE	TABLE	62
	Pt	T	Vf	Im	Vu	Pwr	Sig	Ach	Temp	IERange	Over
	#	s	V	A	V	W	V	V	deg C	#	bits
	0	0.013333	6.18404E-001	5.99454E-003	0.00000E+000	3.70705E-003	3.59960E-001	-1.11052E+000	3.57690E+000	10	...........
	1	0.026667	6.27002E-001	5.98680E-003	0.00000E+000	3.75374E-003	3.59960E-001	-1.11230E+000	3.57690E+000	10	...........
	2	0.04	6.34918E-001	5.99694E-003	0.00000E+000	3.80756E-003	3.59960E-001	-1.12074E+000	3.57690E+000	10	...........
	3	0.053333	6.42502E-001	5.98842E-003	0.00000E+000	3.84757E-003	3.59960E-001	-1.11058E+000	3.57690E+000	10	...........
	4	0.066667	6.49772E-001	5.99007E-003	0.00000E+000	3.89218E-003	3.59960E-001	-1.11200E+000	3.57690E+000	10	...........
	5	0.08	6.56833E-001	5.99729E-003	0.00000E+000	3.93922E-003	3.59960E-001	-1.12076E+000	3.57690E+000	10	...........
	6	0.093333	6.63786E-001	5.99212E-003	0.00000E+000	3.97749E-003	3.59960E-001	-1.11069E+000	3.57690E+000	10	...........
	7	0.106667	6.70602E-001	5.99516E-003	0.00000E+000	4.02037E-003	3.59960E-001	-1.11206E+000	3.57690E+000	10	...........
	8	0.12	6.77327E-001	5.99230E-003	0.00000E+000	4.05875E-003	3.59960E-001	-1.12087E+000	3.57690E+000	10	...........
	9	0.133333	6.83981E-001	5.99713E-003	0.00000E+000	4.10192E-003	3.59960E-001	-1.11061E+000	3.57690E+000	10	...........
	10	0.146667	6.90553E-001	5.99418E-003	0.00000E+000	4.13930E-003	3.59960E-001	-1.11204E+000	3.57690E+000	10	...........
	11	0.16	6.97126E-001	5.99283E-003	0.00000E+000	4.17776E-003	3.59960E-001	-1.12094E+000	3.57690E+000	10	...........
	12	0.173333	7.03633E-001	5.99212E-003	0.00000E+000	4.21626E-003	3.59960E-001	-1.11083E+000	3.57690E+000	10	...........
	13	0.186667	7.10071E-001	5.99348E-003	0.00000E+000	4.25579E-003	3.59960E-001	-1.11163E+000	3.57690E+000	10	...........
	14	0.2	7.16550E-001	5.99123E-003	0.00000E+000	4.29302E-003	3.59960E-001	-1.12048E+000	3.57690E+000	10	...........
	15	0.213333	7.22988E-001	5.99784E-003	0.00000E+000	4.33636E-003	3.59960E-001	-1.11065E+000	3.57690E+000	10	...........
	16	0.226667	7.29338E-001	5.99375E-003	0.00000E+000	4.37147E-003	3.59960E-001	-1.11130E+000	3.57690E+000	10	...........
	17	0.24	7.35709E-001	5.99586E-003	0.00000E+000	4.41120E-003	3.59960E-001	-1.12054E+000	3.57690E+000	10	...........
	18	0.253333	7.42069E-001	5.99082E-003	0.00000E+000	4.44560E-003	3.59960E-001	-1.11043E+000	3.57690E+000	10	...........
	19	0.266667	7.48446E-001	5.99040E-003	0.00000E+000	4.48349E-003	3.59960E-001	-1.11111E+000	3.57690E+000	10	...........
	20	0.28	7.54815E-001	6.00035E-003	0.00000E+000	4.52915E-003	3.59960E-001	-1.12055E+000	3.57690E+000	10	...........
	21	0.293333	7.61118E-001	5.99219E-003	0.00000E+000	4.56076E-003	3.59960E-001	-1.11032E+000	3.57690E+000	10	...........
	22	0.306667	7.67446E-001	5.99895E-003	0.00000E+000	4.60387E-003	3.59960E-001	-1.11111E+000	3.57690E+000	10	...........
	23	0.32	7.73740E-001	5.99747E-003	0.00000E+000	4.64049E-003	3.59960E-001	-1.12070E+000	3.57690E+000	10	...........
	24	0.333333	7.80013E-001	5.99296E-003	0.00000E+000	4.67458E-003	3.59960E-001	-1.11044E+000	3.57690E+000	10	...........
	25	0.346667	7.86297E-001	5.98902E-003	0.00000E+000	4.70915E-003	3.59960E-001	-1.11081E+000	3.57728E+000	10	...........
	26	0.36	7.92585E-001	5.99304E-003	0.00000E+000	4.74999E-003	3.59960E-001	-1.12051E+000	3.57790E+000	10	...........
	27	0.373333	7.98825E-001	5.98989E-003	0.00000E+000	4.78487E-003	3.59960E-001	-1.11047E+000	3.57790E+000	10	...........
	28	0.386667	8.05061E-001	5.99429E-003	0.00000E+000	4.82577E-003	3.59960E-001	-1.11091E+000	3.57790E+000	10	...........
	29	0.4	8.11287E-001	5.99546E-003	0.00000E+000	4.86404E-003	3.59960E-001	-1.12052E+000	3.57790E+000	10	...........
	30	0.413333	8.17489E-001	5.98947E-003	0.00000E+000	4.89633E-003	3.59960E-001	-1.11060E+000	3.57790E+000	10	...........
	31	0.426667	8.23743E-001	5.99428E-003	0.00000E+000	4.93775E-003	3.59960E-001	-1.11074E+000	3.57790E+000	10	...........
	32	0.44	8.29891E-001	5.99731E-003	0.00000E+000	4.97711E-003	3.59960E-001	-1.12076E+000	3.57790E+000	10	...........
	33	0.453333	8.36065E-001	5.99747E-003	0.00000E+000	5.01428E-003	3.59960E-001	-1.11071E+000	3.57790E+000	10	...........
	34	0.466667	8.42307E-001	5.99463E-003	0.00000E+000	5.04931E-003	3.59960E-001	-1.11067E+000	3.57790E+000	10	...........
	35	0.48	8.48505E-001	5.99150E-003	0.00000E+000	5.08382E-003	3.59960E-001	-1.12057E+000	3.57790E+000	10	...........
	36	0.493333	8.54658E-001	5.99298E-003	0.00000E+000	5.12194E-003	3.59960E-001	-1.11087E+000	3.57790E+000	10	...........
	37	0.506667	8.60788E-001	5.98986E-003	0.00000E+000	5.15600E-003	3.59960E-001	-1.11030E+000	3.57790E+000	10	...........
	38	0.52	8.66905E-001	5.99241E-003	0.00000E+000	5.19485E-003	3.59960E-001	-1.12030E+000	3.57790E+000	10	...........
	39	0.533333	8.73020E-001	5.99161E-003	0.00000E+000	5.23079E-003	3.59960E-001	-1.11040E+000	3.57790E+000	10	...........
	40	0.546667	8.79116E-001	5.99216E-003	0.00000E+000	5.26780E-003	3.59960E-001	-1.10985E+000	3.57790E+000	10	...........
	41	0.56	8.85165E-001	5.99647E-003	0.00000E+000	5.30787E-003	3.59960E-001	-1.12022E+000	3.57790E+000	10	...........
	42	0.573333	8.91171E-001	5.99476E-003	0.00000E+000	5.34236E-003	3.59960E-001	-1.11023E+000	3.57790E+000	10	...........
	43	0.586667	8.97198E-001	5.99150E-003	0.00000E+000	5.37556E-003	3.59960E-001	-1.10974E+000	3.57790E+000	10	...........
	44	0.6	9.03177E-001	5.99520E-003	0.00000E+000	5.41473E-003	3.59960E-001	-1.12018E+000	3.57790E+000	10	...........
	45	0.613333	9.09155E-001	5.99608E-003	0.00000E+000	5.45136E-003	3.59960E-001	-1.11047E+000	3.57790E+000	10	...........
	46	0.626667	9.15088E-001	5.99592E-003	0.00000E+000	5.48679E-003	3.59960E-001	-1.10975E+000	3.57790E+000	10	...........
	47	0.64	9.21065E-001	5.99640E-003	0.00000E+000	5.52307E-003	3.59960E-001	-1.12023E+000	3.57790E+000	10	...........
	48	0.653333	9.26962E-001	5.98822E-003	0.00000E+000	5.55085E-003	3.59960E-001	-1.11050E+000	3.57790E+000	10	...........
	49	0.666667	9.32780E-001	5.99188E-003	0.00000E+000	5.58911E-003	3.59960E-001	-1.10926E+000	3.57790E+000	10	...........
	50	0.68	9.38594E-001	5.99731E-003	0.00000E+000	5.62903E-003	3.59960E-001	-1.12006E+000	3.57790E+000	10	...........
	51	0.693333	9.44396E-001	5.99521E-003	0.00000E+000	5.66185E-003	3.59960E-001	-1.11058E+000	3.57790E+000	10	...........
	52	0.706667	9.50206E-001	5.99196E-003	0.00000E+000	5.69359E-003	3.59960E-001	-1.10930E+000	3.57790E+000	10	...........
	53	0.72	9.55889E-001	5.99161E-003	0.00000E+000	5.72731E-003	3.59960E-001	-1.11978E+000	3.57790E+000	10	...........
	54	0.733333	9.61582E-001	5.99168E-003	0.00000E+000	5.76150E-003	3.59960E-001	-1.11054E+000	3.57790E+000	10	...........
	55	0.746667	9.67269E-001	5.99651E-003	0.00000E+000	5.80024E-003	3.59960E-001	-1.10931E+000	3.57790E+000	10	...........
	56	0.76	9.72889E-001	5.99248E-003	0.00000E+000	5.83002E-003	3.59960E-001	-1.11992E+000	3.57790E+000	10	...........
	57	0.773333	9.78475E-001	5.99285E-003	0.00000E+000	5.86386E-003	3.59960E-001	-1.11087E+000	3.57790E+000	10	...........
	58	0.786667	9.84032E-001	5.99104E-003	0.00000E+000	5.89537E-003	3.59960E-001	-1.10956E+000	3.57790E+000	10	...........
	59	0.8	9.89524E-001	5.99262E-003	0.00000E+000	5.92984E-003	3.59960E-001	-1.12008E+000	3.57790E+000	10	...........
	60	0.813333	9.94985E-001	5.99078E-003	0.00000E+000	5.96073E-003	3.59960E-001	-1.11095E+000	3.57790E+000	10	...........
	61	0.82	9.99066E-001	5.99970E-003	0.00000E+000	5.99409E-003	3.59960E-001	-1.11818E+000	3.57790E+000	10	...........
STARTTIMEOFFSET	QUANT	573.9382	Start Time Offset (s)