Folder: Tesis/Data/CV_CRGO300517_1/PWRCCD_CRGO300517_1/CHARGE_DISCHARGE (part 109)

File: CHARGE_#217.DTA
EXPLAIN
TAG	PWR800_CHARGE
TITLE	LABEL	PWR Cyclic Charge Discharge (Cell) - Charge Step	Test &Identifier
DATE	LABEL	22-6-2017	Date
TIME	LABEL	15:44:31	Time
NOTES	NOTES	3	&Notes...
	supercap test cell
	0.6mg
	6M KOH
PSTAT	PSTAT	IFC5000-01520	Potentiostat
CAPACITY	QUANT	1.00000E-003	Capacity (A-hr)
CELLTYPE	SELECTOR	1	&Cell Type
WORKINGCONNECTION	SELECTOR	0	&Working Lead
MAXCHARGETIME	VARIABLEANDUNITS	1.00000E+002	s	1.00000E+002	second(s)	Max &Charge Time
CHARGECURRENT	QUANT	6.00000E-003	&Charge Current (A)
VOLTAGEFINISH	TWOPARAM	F	1.00000E-003	3.60000E+003	&Voltage Finish	 I (A) < 	Max Time(s)
SAMPLETIME	QUANT	1.00000E-002	Sa&mple Period (s)
CHARGESTOPAT1	MULTIPARAM	4	1.00000E+000	Charge Stop At &1	Voltage > Limit	V
CHARGESTOPAT2	MULTIPARAM	0	0.00000E+000	Charge Stop At &2	None	N/A
AESBHCSELECTOR	TOGGLE	F	Save Both Half Cells
IRCOMP	TOGGLE	F	IR &Measure
EOC	QUANT	0	Open Circuit (V)
SEQUENCER	TOGGLE	TRUE	Run as Sequence
PSTATMODEL	IQUANT	53	Pstat Model
PSTATSECTION	LABEL	IFC5000-01520	Pstat Section
PSTATSERIALNO	LABEL	01520	Pstat Serial Number
CTRLMODE	IQUANT	0	Control Mode
ELECTROMETER	IQUANT	1	RE=0 or CS=1
IESTAB	IQUANT	0	I/E Stability
CASPEED	IQUANT	4	Control Amp Speed
CONVENTION	IQUANT	1	Current Convention
ICHRANGE	IQUANT	2	Ich Range
ICHRANGEMODE	TOGGLE	T	Ich Auto Range
ICHOFFSETENABLE	TOGGLE	F	Ich Offset Enable
ICHOFFSET	QUANT	0	Ich Offset (V)
ICHFILTER	IQUANT	1	Ich Filter
VCHRANGE	IQUANT	2	Vch Range
VCHRANGEMODE	TOGGLE	T	Vch Auto Range
VCHOFFSETENABLE	TOGGLE	F	Vch Offset Enable
VCHOFFSET	QUANT	0	Vch Offset (V)
VCHFILTER	IQUANT	1	Vch Filter
IERANGELOWERLIMIT	IQUANT	9	I/E Range Lower Limit
IERANGEMODE	TOGGLE	F	I/E AutoRange
IERANGE	IQUANT	10	I/E Range
ACHSELECT	IQUANT	1	Ach Select
ACHRANGE	IQUANT	2	Ach Range
ACHOFFSETENABLE	TOGGLE	F	Ach Offset Enable
ACHOFFSET	QUANT	0	Ach Offset (V)
ACHFILTER	IQUANT	1	Ach Filter
CABLEID	IQUANT	14	Cable ID
DCCALDATE	LABEL	20-10-2016	DC Calibration Date
ACCALDATE	LABEL	12/3/2015	AC Calibration Date
FRAMEWORKVERSION	QUANT	7.01	Framework Version
INSTRUMENTVERSION	LABEL	4.00	Instrument Version
CURVE	TABLE	65
	Pt	T	Vf	Im	Vu	Pwr	Sig	Ach	Temp	IERange	Over
	#	s	V	A	V	W	V	V	deg C	#	bits
	0	0.013333	6.07794E-001	5.99918E-003	0.00000E+000	3.64627E-003	3.59960E-001	-1.08939E+000	3.57760E+000	10	...........
	1	0.026667	6.16336E-001	5.99563E-003	0.00000E+000	3.69532E-003	3.59960E-001	-1.09663E+000	3.57760E+000	10	...........
	2	0.04	6.24156E-001	5.99659E-003	0.00000E+000	3.74281E-003	3.59960E-001	-1.09592E+000	3.57760E+000	10	...........
	3	0.053333	6.31528E-001	5.99637E-003	0.00000E+000	3.78687E-003	3.59960E-001	-1.08966E+000	3.57760E+000	10	...........
	4	0.066667	6.38638E-001	5.99478E-003	0.00000E+000	3.82850E-003	3.59960E-001	-1.09661E+000	3.57760E+000	10	...........
	5	0.08	6.45569E-001	5.98989E-003	0.00000E+000	3.86689E-003	3.59960E-001	-1.09565E+000	3.57743E+000	10	...........
	6	0.093333	6.52375E-001	5.99451E-003	0.00000E+000	3.91067E-003	3.59960E-001	-1.08939E+000	3.57690E+000	10	...........
	7	0.106667	6.59029E-001	5.99346E-003	0.00000E+000	3.94986E-003	3.59960E-001	-1.09653E+000	3.57690E+000	10	...........
	8	0.12	6.65690E-001	5.99224E-003	0.00000E+000	3.98897E-003	3.59960E-001	-1.09570E+000	3.57690E+000	10	...........
	9	0.133333	6.72178E-001	5.99234E-003	0.00000E+000	4.02792E-003	3.59960E-001	-1.08941E+000	3.57690E+000	10	...........
	10	0.146667	6.78639E-001	5.99306E-003	0.00000E+000	4.06712E-003	3.59960E-001	-1.09653E+000	3.57690E+000	10	...........
	11	0.16	6.85060E-001	5.98959E-003	0.00000E+000	4.10323E-003	3.59960E-001	-1.09552E+000	3.57690E+000	10	...........
	12	0.173333	6.91442E-001	5.99068E-003	0.00000E+000	4.14221E-003	3.59960E-001	-1.08937E+000	3.57690E+000	10	...........
	13	0.186667	6.97775E-001	5.99410E-003	0.00000E+000	4.18253E-003	3.59960E-001	-1.09647E+000	3.57690E+000	10	...........
	14	0.2	7.04096E-001	5.99363E-003	0.00000E+000	4.22009E-003	3.59960E-001	-1.09528E+000	3.57690E+000	10	...........
	15	0.213333	7.10362E-001	5.99330E-003	0.00000E+000	4.25741E-003	3.59960E-001	-1.08925E+000	3.57690E+000	10	...........
	16	0.226667	7.16634E-001	6.00006E-003	0.00000E+000	4.29985E-003	3.59960E-001	-1.09674E+000	3.57690E+000	10	...........
	17	0.24	7.22894E-001	5.99679E-003	0.00000E+000	4.33504E-003	3.59960E-001	-1.09540E+000	3.57690E+000	10	...........
	18	0.253333	7.29103E-001	5.99886E-003	0.00000E+000	4.37379E-003	3.59960E-001	-1.08963E+000	3.57690E+000	10	...........
	19	0.266667	7.35344E-001	5.99631E-003	0.00000E+000	4.40934E-003	3.59960E-001	-1.09651E+000	3.57690E+000	10	...........
	20	0.28	7.41537E-001	5.99310E-003	0.00000E+000	4.44411E-003	3.59960E-001	-1.09507E+000	3.57690E+000	10	...........
	21	0.293333	7.47709E-001	5.99586E-003	0.00000E+000	4.48316E-003	3.59960E-001	-1.08932E+000	3.57690E+000	10	...........
	22	0.306667	7.53950E-001	5.99486E-003	0.00000E+000	4.51982E-003	3.59960E-001	-1.09677E+000	3.57690E+000	10	...........
	23	0.32	7.60120E-001	5.99027E-003	0.00000E+000	4.55332E-003	3.59960E-001	-1.09474E+000	3.57690E+000	10	...........
	24	0.333333	7.66264E-001	5.99369E-003	0.00000E+000	4.59275E-003	3.59960E-001	-1.08899E+000	3.57690E+000	10	...........
	25	0.346667	7.72430E-001	5.99462E-003	0.00000E+000	4.63042E-003	3.59960E-001	-1.09634E+000	3.57690E+000	10	...........
	26	0.36	7.78581E-001	5.99390E-003	0.00000E+000	4.66673E-003	3.59960E-001	-1.09459E+000	3.57690E+000	10	...........
	27	0.373333	7.84718E-001	5.99559E-003	0.00000E+000	4.70484E-003	3.59960E-001	-1.08911E+000	3.57690E+000	10	...........
	28	0.386667	7.90824E-001	5.99308E-003	0.00000E+000	4.73947E-003	3.59960E-001	-1.09642E+000	3.57690E+000	10	...........
	29	0.4	7.96976E-001	5.99313E-003	0.00000E+000	4.77639E-003	3.59960E-001	-1.09435E+000	3.57690E+000	10	...........
	30	0.413333	8.03100E-001	5.99696E-003	0.00000E+000	4.81616E-003	3.59960E-001	-1.08883E+000	3.57690E+000	10	...........
	31	0.426667	8.09196E-001	5.99159E-003	0.00000E+000	4.84837E-003	3.59960E-001	-1.09632E+000	3.57690E+000	10	...........
	32	0.44	8.15254E-001	5.99268E-003	0.00000E+000	4.88556E-003	3.59960E-001	-1.09443E+000	3.57690E+000	10	...........
	33	0.453333	8.21412E-001	5.99601E-003	0.00000E+000	4.92520E-003	3.59960E-001	-1.08880E+000	3.57690E+000	10	...........
	34	0.466667	8.27475E-001	5.99559E-003	0.00000E+000	4.96120E-003	3.59960E-001	-1.09616E+000	3.57690E+000	10	...........
	35	0.48	8.33486E-001	5.99163E-003	0.00000E+000	4.99394E-003	3.59960E-001	-1.09426E+000	3.57690E+000	10	...........
	36	0.493333	8.39542E-001	5.99669E-003	0.00000E+000	5.03448E-003	3.59960E-001	-1.08884E+000	3.57690E+000	10	...........
	37	0.506667	8.45574E-001	5.99155E-003	0.00000E+000	5.06630E-003	3.59960E-001	-1.09659E+000	3.57690E+000	10	...........
	38	0.52	8.51629E-001	5.99258E-003	0.00000E+000	5.10346E-003	3.59960E-001	-1.09416E+000	3.57690E+000	10	...........
	39	0.533333	8.57659E-001	5.99360E-003	0.00000E+000	5.14047E-003	3.59960E-001	-1.08876E+000	3.57690E+000	10	...........
	40	0.546667	8.63696E-001	5.99095E-003	0.00000E+000	5.17436E-003	3.59960E-001	-1.09643E+000	3.57690E+000	10	...........
	41	0.56	8.69708E-001	5.99306E-003	0.00000E+000	5.21222E-003	3.59960E-001	-1.09409E+000	3.57690E+000	10	...........
	42	0.573333	8.75719E-001	5.99545E-003	0.00000E+000	5.25033E-003	3.59960E-001	-1.08896E+000	3.57690E+000	10	...........
	43	0.586667	8.81697E-001	5.99524E-003	0.00000E+000	5.28598E-003	3.59960E-001	-1.09650E+000	3.57690E+000	10	...........
	44	0.6	8.87657E-001	5.99450E-003	0.00000E+000	5.32106E-003	3.59960E-001	-1.09390E+000	3.57690E+000	10	...........
	45	0.613333	8.93575E-001	5.99286E-003	0.00000E+000	5.35507E-003	3.59960E-001	-1.08865E+000	3.57690E+000	10	...........
	46	0.626667	8.99481E-001	5.99357E-003	0.00000E+000	5.39110E-003	3.59960E-001	-1.09654E+000	3.57690E+000	10	...........
	47	0.64	9.05356E-001	5.99158E-003	0.00000E+000	5.42452E-003	3.59960E-001	-1.09379E+000	3.57690E+000	10	...........
	48	0.653333	9.11274E-001	5.99706E-003	0.00000E+000	5.46496E-003	3.59960E-001	-1.08841E+000	3.57690E+000	10	...........
	49	0.666667	9.17125E-001	5.99577E-003	0.00000E+000	5.49887E-003	3.59960E-001	-1.09626E+000	3.57690E+000	10	...........
	50	0.68	9.22987E-001	5.99312E-003	0.00000E+000	5.53157E-003	3.59960E-001	-1.09392E+000	3.57690E+000	10	...........
	51	0.693333	9.28824E-001	5.99305E-003	0.00000E+000	5.56649E-003	3.59960E-001	-1.08844E+000	3.57690E+000	10	...........
	52	0.706667	9.34606E-001	5.99400E-003	0.00000E+000	5.60203E-003	3.59960E-001	-1.09618E+000	3.57690E+000	10	...........
	53	0.72	9.40322E-001	5.99346E-003	0.00000E+000	5.63578E-003	3.59960E-001	-1.09363E+000	3.57690E+000	10	...........
	54	0.733333	9.46053E-001	5.99259E-003	0.00000E+000	5.66931E-003	3.59960E-001	-1.08856E+000	3.57690E+000	10	...........
	55	0.746667	9.51777E-001	5.99402E-003	0.00000E+000	5.70497E-003	3.59960E-001	-1.09657E+000	3.57690E+000	10	...........
	56	0.76	9.57416E-001	5.99136E-003	0.00000E+000	5.73622E-003	3.59960E-001	-1.09357E+000	3.57690E+000	10	...........
	57	0.773333	9.63023E-001	5.99430E-003	0.00000E+000	5.77265E-003	3.59960E-001	-1.08844E+000	3.57690E+000	10	...........
	58	0.786667	9.68607E-001	5.99793E-003	0.00000E+000	5.80964E-003	3.59960E-001	-1.09658E+000	3.57690E+000	10	...........
	59	0.8	9.74187E-001	5.98981E-003	0.00000E+000	5.83519E-003	3.59960E-001	-1.09362E+000	3.57690E+000	10	...........
	60	0.813333	9.79738E-001	5.99485E-003	0.00000E+000	5.87338E-003	3.59960E-001	-1.08838E+000	3.57690E+000	10	...........
	61	0.826667	9.85201E-001	5.99289E-003	0.00000E+000	5.90421E-003	3.59960E-001	-1.09659E+000	3.57690E+000	10	...........
	62	0.84	9.90618E-001	5.99488E-003	0.00000E+000	5.93863E-003	3.59960E-001	-1.09358E+000	3.57690E+000	10	...........
	63	0.853333	9.96017E-001	5.99373E-003	0.00000E+000	5.96986E-003	3.59960E-001	-1.08870E+000	3.57690E+000	10	...........
	64	0.858333	9.99754E-001	5.99029E-003	0.00000E+000	5.98881E-003	3.59960E-001	-1.10199E+000	3.57690E+000	10	...........
STARTTIMEOFFSET	QUANT	402.0866	Start Time Offset (s)

File: CHARGE_#218.DTA
EXPLAIN
TAG	PWR800_CHARGE
TITLE	LABEL	PWR Cyclic Charge Discharge (Cell) - Charge Step	Test &Identifier
DATE	LABEL	22-6-2017	Date
TIME	LABEL	15:44:33	Time
NOTES	NOTES	3	&Notes...
	supercap test cell
	0.6mg
	6M KOH
PSTAT	PSTAT	IFC5000-01520	Potentiostat
CAPACITY	QUANT	1.00000E-003	Capacity (A-hr)
CELLTYPE	SELECTOR	1	&Cell Type
WORKINGCONNECTION	SELECTOR	0	&Working Lead
MAXCHARGETIME	VARIABLEANDUNITS	1.00000E+002	s	1.00000E+002	second(s)	Max &Charge Time
CHARGECURRENT	QUANT	6.00000E-003	&Charge Current (A)
VOLTAGEFINISH	TWOPARAM	F	1.00000E-003	3.60000E+003	&Voltage Finish	 I (A) < 	Max Time(s)
SAMPLETIME	QUANT	1.00000E-002	Sa&mple Period (s)
CHARGESTOPAT1	MULTIPARAM	4	1.00000E+000	Charge Stop At &1	Voltage > Limit	V
CHARGESTOPAT2	MULTIPARAM	0	0.00000E+000	Charge Stop At &2	None	N/A
AESBHCSELECTOR	TOGGLE	F	Save Both Half Cells
IRCOMP	TOGGLE	F	IR &Measure
EOC	QUANT	0	Open Circuit (V)
SEQUENCER	TOGGLE	TRUE	Run as Sequence
PSTATMODEL	IQUANT	53	Pstat Model
PSTATSECTION	LABEL	IFC5000-01520	Pstat Section
PSTATSERIALNO	LABEL	01520	Pstat Serial Number
CTRLMODE	IQUANT	0	Control Mode
ELECTROMETER	IQUANT	1	RE=0 or CS=1
IESTAB	IQUANT	0	I/E Stability
CASPEED	IQUANT	4	Control Amp Speed
CONVENTION	IQUANT	1	Current Convention
ICHRANGE	IQUANT	2	Ich Range
ICHRANGEMODE	TOGGLE	T	Ich Auto Range
ICHOFFSETENABLE	TOGGLE	F	Ich Offset Enable
ICHOFFSET	QUANT	0	Ich Offset (V)
ICHFILTER	IQUANT	1	Ich Filter
VCHRANGE	IQUANT	2	Vch Range
VCHRANGEMODE	TOGGLE	T	Vch Auto Range
VCHOFFSETENABLE	TOGGLE	F	Vch Offset Enable
VCHOFFSET	QUANT	0	Vch Offset (V)
VCHFILTER	IQUANT	1	Vch Filter
IERANGELOWERLIMIT	IQUANT	9	I/E Range Lower Limit
IERANGEMODE	TOGGLE	F	I/E AutoRange
IERANGE	IQUANT	10	I/E Range
ACHSELECT	IQUANT	1	Ach Select
ACHRANGE	IQUANT	2	Ach Range
ACHOFFSETENABLE	TOGGLE	F	Ach Offset Enable
ACHOFFSET	QUANT	0	Ach Offset (V)
ACHFILTER	IQUANT	1	Ach Filter
CABLEID	IQUANT	14	Cable ID
DCCALDATE	LABEL	20-10-2016	DC Calibration Date
ACCALDATE	LABEL	12/3/2015	AC Calibration Date
FRAMEWORKVERSION	QUANT	7.01	Framework Version
INSTRUMENTVERSION	LABEL	4.00	Instrument Version
CURVE	TABLE	65
	Pt	T	Vf	Im	Vu	Pwr	Sig	Ach	Temp	IERange	Over
	#	s	V	A	V	W	V	V	deg C	#	bits
	0	0.013333	6.08162E-001	5.99627E-003	0.00000E+000	3.64670E-003	3.59960E-001	-1.08381E+000	3.57820E+000	10	...........
	1	0.026667	6.16707E-001	5.99428E-003	0.00000E+000	3.69672E-003	3.59960E-001	-1.08529E+000	3.57820E+000	10	...........
	2	0.04	6.24478E-001	5.99409E-003	0.00000E+000	3.74318E-003	3.59960E-001	-1.09452E+000	3.57820E+000	10	...........
	3	0.053333	6.31848E-001	5.99324E-003	0.00000E+000	3.78682E-003	3.59960E-001	-1.08574E+000	3.57820E+000	10	...........
	4	0.066667	6.38977E-001	5.99672E-003	0.00000E+000	3.83177E-003	3.59960E-001	-1.08744E+000	3.57820E+000	10	...........
	5	0.08	6.45899E-001	5.99206E-003	0.00000E+000	3.87027E-003	3.59960E-001	-1.09727E+000	3.57820E+000	10	...........
	6	0.093333	6.52703E-001	5.99262E-003	0.00000E+000	3.91140E-003	3.59960E-001	-1.08844E+000	3.57820E+000	10	...........
	7	0.106667	6.59362E-001	5.99332E-003	0.00000E+000	3.95177E-003	3.59960E-001	-1.08995E+000	3.57820E+000	10	...........
	8	0.12	6.65943E-001	5.99264E-003	0.00000E+000	3.99076E-003	3.59960E-001	-1.09890E+000	3.57820E+000	10	...........
	9	0.133333	6.72502E-001	5.98891E-003	0.00000E+000	4.02755E-003	3.59960E-001	-1.09007E+000	3.57820E+000	10	...........
	10	0.146667	6.78954E-001	5.99379E-003	0.00000E+000	4.06951E-003	3.59960E-001	-1.09145E+000	3.57820E+000	10	...........
	11	0.16	6.85353E-001	5.99648E-003	0.00000E+000	4.10971E-003	3.59960E-001	-1.10053E+000	3.57820E+000	10	...........
	12	0.173333	6.91739E-001	5.99359E-003	0.00000E+000	4.14600E-003	3.59960E-001	-1.09107E+000	3.57820E+000	10	...........
	13	0.186667	6.98079E-001	5.99343E-003	0.00000E+000	4.18388E-003	3.59960E-001	-1.09210E+000	3.57820E+000	10	...........
	14	0.2	7.04362E-001	5.99116E-003	0.00000E+000	4.21995E-003	3.59960E-001	-1.10036E+000	3.57820E+000	10	...........
	15	0.213333	7.10622E-001	5.99201E-003	0.00000E+000	4.25805E-003	3.59960E-001	-1.09076E+000	3.57820E+000	10	...........
	16	0.226667	7.16886E-001	5.99165E-003	0.00000E+000	4.29533E-003	3.59960E-001	-1.09147E+000	3.57820E+000	10	...........
	17	0.24	7.23152E-001	5.99579E-003	0.00000E+000	4.33587E-003	3.59960E-001	-1.09945E+000	3.57820E+000	10	...........
	18	0.253333	7.29371E-001	5.99119E-003	0.00000E+000	4.36981E-003	3.59960E-001	-1.08976E+000	3.57820E+000	10	...........
	19	0.266667	7.35561E-001	5.99430E-003	0.00000E+000	4.40918E-003	3.59960E-001	-1.09098E+000	3.57820E+000	10	...........
	20	0.28	7.41783E-001	5.99233E-003	0.00000E+000	4.44501E-003	3.59960E-001	-1.09909E+000	3.57820E+000	10	...........
	21	0.293333	7.47980E-001	5.99344E-003	0.00000E+000	4.48297E-003	3.59960E-001	-1.08962E+000	3.57820E+000	10	...........
	22	0.306667	7.54154E-001	5.99217E-003	0.00000E+000	4.51902E-003	3.59960E-001	-1.09117E+000	3.57820E+000	10	...........
	23	0.32	7.60295E-001	5.98884E-003	0.00000E+000	4.55328E-003	3.59960E-001	-1.09944E+000	3.57820E+000	10	...........
	24	0.333333	7.66510E-001	5.99817E-003	0.00000E+000	4.59766E-003	3.59960E-001	-1.09062E+000	3.57820E+000	10	...........
	25	0.346667	7.72672E-001	5.99224E-003	0.00000E+000	4.63004E-003	3.59960E-001	-1.09238E+000	3.57820E+000	10	...........
	26	0.36	7.78797E-001	5.99318E-003	0.00000E+000	4.66747E-003	3.59960E-001	-1.10071E+000	3.57820E+000	10	...........
	27	0.373333	7.84972E-001	5.99301E-003	0.00000E+000	4.70434E-003	3.59960E-001	-1.09154E+000	3.57820E+000	10	...........
	28	0.386667	7.91093E-001	5.99721E-003	0.00000E+000	4.74435E-003	3.59960E-001	-1.09316E+000	3.57820E+000	10	...........
	29	0.4	7.97210E-001	5.99652E-003	0.00000E+000	4.78049E-003	3.59960E-001	-1.10154E+000	3.57820E+000	10	...........
	30	0.413333	8.03308E-001	5.99384E-003	0.00000E+000	4.81490E-003	3.59960E-001	-1.09246E+000	3.57820E+000	10	...........
	31	0.426667	8.09410E-001	5.99610E-003	0.00000E+000	4.85330E-003	3.59960E-001	-1.09408E+000	3.57820E+000	10	...........
	32	0.44	8.15513E-001	5.99283E-003	0.00000E+000	4.88723E-003	3.59960E-001	-1.10210E+000	3.57820E+000	10	...........
	33	0.453333	8.21602E-001	5.99259E-003	0.00000E+000	4.92352E-003	3.59960E-001	-1.09275E+000	3.57820E+000	10	...........
	34	0.466667	8.27691E-001	5.99873E-003	0.00000E+000	4.96509E-003	3.59960E-001	-1.09445E+000	3.57820E+000	10	...........
	35	0.48	8.33726E-001	5.99673E-003	0.00000E+000	4.99963E-003	3.59960E-001	-1.10190E+000	3.57820E+000	10	...........
	36	0.493333	8.39746E-001	5.99236E-003	0.00000E+000	5.03206E-003	3.59960E-001	-1.09265E+000	3.57820E+000	10	...........
	37	0.506667	8.45837E-001	5.99294E-003	0.00000E+000	5.06905E-003	3.59960E-001	-1.09416E+000	3.57820E+000	10	...........
	38	0.52	8.51873E-001	5.99653E-003	0.00000E+000	5.10829E-003	3.59960E-001	-1.10186E+000	3.57820E+000	10	...........
	39	0.533333	8.57888E-001	5.99163E-003	0.00000E+000	5.14015E-003	3.59960E-001	-1.09284E+000	3.57820E+000	10	...........
	40	0.546667	8.63892E-001	5.99428E-003	0.00000E+000	5.17841E-003	3.59960E-001	-1.09468E+000	3.57820E+000	10	...........
	41	0.56	8.69908E-001	5.99060E-003	0.00000E+000	5.21127E-003	3.59960E-001	-1.10203E+000	3.57820E+000	10	...........
	42	0.573333	8.75879E-001	5.99395E-003	0.00000E+000	5.24998E-003	3.59960E-001	-1.09250E+000	3.57817E+000	10	...........
	43	0.586667	8.81880E-001	5.99535E-003	0.00000E+000	5.28718E-003	3.59960E-001	-1.09417E+000	3.57800E+000	10	...........
	44	0.6	8.87831E-001	5.99694E-003	0.00000E+000	5.32427E-003	3.59960E-001	-1.10127E+000	3.57800E+000	10	...........
	45	0.613333	8.93745E-001	5.99433E-003	0.00000E+000	5.35740E-003	3.59960E-001	-1.09137E+000	3.57800E+000	10	...........
	46	0.626667	8.99689E-001	5.99480E-003	0.00000E+000	5.39346E-003	3.59960E-001	-1.09272E+000	3.57800E+000	10	...........
	47	0.64	9.05583E-001	5.99264E-003	0.00000E+000	5.42684E-003	3.59960E-001	-1.09948E+000	3.57800E+000	10	...........
	48	0.653333	9.11484E-001	5.99767E-003	0.00000E+000	5.46678E-003	3.59960E-001	-1.08946E+000	3.57800E+000	10	...........
	49	0.666667	9.17342E-001	5.99244E-003	0.00000E+000	5.49711E-003	3.59960E-001	-1.09141E+000	3.57800E+000	10	...........
	50	0.68	9.23216E-001	5.99471E-003	0.00000E+000	5.53441E-003	3.59960E-001	-1.09805E+000	3.57800E+000	10	...........
	51	0.693333	9.29013E-001	5.99517E-003	0.00000E+000	5.56959E-003	3.59960E-001	-1.08818E+000	3.57800E+000	10	...........
	52	0.706667	9.34786E-001	5.99582E-003	0.00000E+000	5.60480E-003	3.59960E-001	-1.08993E+000	3.57800E+000	10	...........
	53	0.72	9.40509E-001	5.99463E-003	0.00000E+000	5.63800E-003	3.59960E-001	-1.09683E+000	3.57800E+000	10	...........
	54	0.733333	9.46245E-001	5.99546E-003	0.00000E+000	5.67318E-003	3.59960E-001	-1.08731E+000	3.57800E+000	10	...........
	55	0.746667	9.51964E-001	5.99077E-003	0.00000E+000	5.70299E-003	3.59960E-001	-1.08938E+000	3.57800E+000	10	...........
	56	0.76	9.57598E-001	5.99605E-003	0.00000E+000	5.74181E-003	3.59960E-001	-1.09606E+000	3.57800E+000	10	...........
	57	0.773333	9.63209E-001	5.99105E-003	0.00000E+000	5.77063E-003	3.59960E-001	-1.08653E+000	3.57800E+000	10	...........
	58	0.786667	9.68791E-001	5.99660E-003	0.00000E+000	5.80945E-003	3.59960E-001	-1.08857E+000	3.57800E+000	10	...........
	59	0.8	9.74410E-001	5.99104E-003	0.00000E+000	5.83772E-003	3.59960E-001	-1.09559E+000	3.57800E+000	10	...........
	60	0.813333	9.79923E-001	5.99697E-003	0.00000E+000	5.87657E-003	3.59960E-001	-1.08622E+000	3.57800E+000	10	...........
	61	0.826667	9.85414E-001	5.99440E-003	0.00000E+000	5.90696E-003	3.59960E-001	-1.08843E+000	3.57800E+000	10	...........
	62	0.84	9.90852E-001	5.99614E-003	0.00000E+000	5.94128E-003	3.59960E-001	-1.09475E+000	3.57800E+000	10	...........
	63	0.853333	9.96246E-001	5.99319E-003	0.00000E+000	5.97069E-003	3.59960E-001	-1.08547E+000	3.57800E+000	10	...........
	64	0.858333	9.99954E-001	5.98687E-003	0.00000E+000	5.98659E-003	3.59960E-001	-1.09780E+000	3.57800E+000	10	...........
STARTTIMEOFFSET	QUANT	403.7933	Start Time Offset (s)