Folder: Tesis/Data/CV_CRGO300517_1/PWRCCD_CRGO300517_1/CHARGE_DISCHARGE (part 149)

File: CHARGE_#301.DTA
EXPLAIN
TAG	PWR800_CHARGE
TITLE	LABEL	PWR Cyclic Charge Discharge (Cell) - Charge Step	Test &Identifier
DATE	LABEL	22-6-2017	Date
TIME	LABEL	15:47:58	Time
NOTES	NOTES	3	&Notes...
	supercap test cell
	0.6mg
	6M KOH
PSTAT	PSTAT	IFC5000-01520	Potentiostat
CAPACITY	QUANT	1.00000E-003	Capacity (A-hr)
CELLTYPE	SELECTOR	1	&Cell Type
WORKINGCONNECTION	SELECTOR	0	&Working Lead
MAXCHARGETIME	VARIABLEANDUNITS	1.00000E+002	s	1.00000E+002	second(s)	Max &Charge Time
CHARGECURRENT	QUANT	6.00000E-003	&Charge Current (A)
VOLTAGEFINISH	TWOPARAM	F	1.00000E-003	3.60000E+003	&Voltage Finish	 I (A) < 	Max Time(s)
SAMPLETIME	QUANT	1.00000E-002	Sa&mple Period (s)
CHARGESTOPAT1	MULTIPARAM	4	1.00000E+000	Charge Stop At &1	Voltage > Limit	V
CHARGESTOPAT2	MULTIPARAM	0	0.00000E+000	Charge Stop At &2	None	N/A
AESBHCSELECTOR	TOGGLE	F	Save Both Half Cells
IRCOMP	TOGGLE	F	IR &Measure
EOC	QUANT	0	Open Circuit (V)
SEQUENCER	TOGGLE	TRUE	Run as Sequence
PSTATMODEL	IQUANT	53	Pstat Model
PSTATSECTION	LABEL	IFC5000-01520	Pstat Section
PSTATSERIALNO	LABEL	01520	Pstat Serial Number
CTRLMODE	IQUANT	0	Control Mode
ELECTROMETER	IQUANT	1	RE=0 or CS=1
IESTAB	IQUANT	0	I/E Stability
CASPEED	IQUANT	4	Control Amp Speed
CONVENTION	IQUANT	1	Current Convention
ICHRANGE	IQUANT	2	Ich Range
ICHRANGEMODE	TOGGLE	T	Ich Auto Range
ICHOFFSETENABLE	TOGGLE	F	Ich Offset Enable
ICHOFFSET	QUANT	0	Ich Offset (V)
ICHFILTER	IQUANT	1	Ich Filter
VCHRANGE	IQUANT	2	Vch Range
VCHRANGEMODE	TOGGLE	T	Vch Auto Range
VCHOFFSETENABLE	TOGGLE	F	Vch Offset Enable
VCHOFFSET	QUANT	0	Vch Offset (V)
VCHFILTER	IQUANT	1	Vch Filter
IERANGELOWERLIMIT	IQUANT	9	I/E Range Lower Limit
IERANGEMODE	TOGGLE	F	I/E AutoRange
IERANGE	IQUANT	10	I/E Range
ACHSELECT	IQUANT	1	Ach Select
ACHRANGE	IQUANT	2	Ach Range
ACHOFFSETENABLE	TOGGLE	F	Ach Offset Enable
ACHOFFSET	QUANT	0	Ach Offset (V)
ACHFILTER	IQUANT	1	Ach Filter
CABLEID	IQUANT	14	Cable ID
DCCALDATE	LABEL	20-10-2016	DC Calibration Date
ACCALDATE	LABEL	12/3/2015	AC Calibration Date
FRAMEWORKVERSION	QUANT	7.01	Framework Version
INSTRUMENTVERSION	LABEL	4.00	Instrument Version
CURVE	TABLE	62
	Pt	T	Vf	Im	Vu	Pwr	Sig	Ach	Temp	IERange	Over
	#	s	V	A	V	W	V	V	deg C	#	bits
	0	0.013333	6.16160E-001	5.99676E-003	0.00000E+000	3.69496E-003	3.59960E-001	-1.10793E+000	3.57810E+000	10	...........
	1	0.026667	6.24775E-001	5.99213E-003	0.00000E+000	3.74374E-003	3.59960E-001	-1.10938E+000	3.57810E+000	10	...........
	2	0.04	6.32682E-001	5.99322E-003	0.00000E+000	3.79180E-003	3.59960E-001	-1.11740E+000	3.57810E+000	10	...........
	3	0.053333	6.40167E-001	5.99757E-003	0.00000E+000	3.83945E-003	3.59960E-001	-1.10746E+000	3.57810E+000	10	...........
	4	0.066667	6.47420E-001	5.99112E-003	0.00000E+000	3.87877E-003	3.59960E-001	-1.10897E+000	3.57810E+000	10	...........
	5	0.08	6.54461E-001	5.99262E-003	0.00000E+000	3.92194E-003	3.59960E-001	-1.11725E+000	3.57810E+000	10	...........
	6	0.093333	6.61369E-001	5.99369E-003	0.00000E+000	3.96404E-003	3.59960E-001	-1.10725E+000	3.57810E+000	10	...........
	7	0.106667	6.68239E-001	5.99455E-003	0.00000E+000	4.00579E-003	3.59960E-001	-1.10860E+000	3.57810E+000	10	...........
	8	0.12	6.74940E-001	5.99138E-003	0.00000E+000	4.04382E-003	3.59960E-001	-1.11697E+000	3.57810E+000	10	...........
	9	0.133333	6.81581E-001	5.99716E-003	0.00000E+000	4.08755E-003	3.59960E-001	-1.10714E+000	3.57810E+000	10	...........
	10	0.146667	6.88145E-001	5.99141E-003	0.00000E+000	4.12296E-003	3.59960E-001	-1.10853E+000	3.57810E+000	10	...........
	11	0.16	6.94719E-001	5.99325E-003	0.00000E+000	4.16362E-003	3.59960E-001	-1.11677E+000	3.57810E+000	10	...........
	12	0.173333	7.01204E-001	5.99293E-003	0.00000E+000	4.20226E-003	3.59960E-001	-1.10687E+000	3.57810E+000	10	...........
	13	0.186667	7.07688E-001	5.99489E-003	0.00000E+000	4.24251E-003	3.59960E-001	-1.10832E+000	3.57810E+000	10	...........
	14	0.2	7.14102E-001	5.99246E-003	0.00000E+000	4.27923E-003	3.59960E-001	-1.11686E+000	3.57810E+000	10	...........
	15	0.213333	7.20564E-001	5.99366E-003	0.00000E+000	4.31882E-003	3.59960E-001	-1.10683E+000	3.57810E+000	10	...........
	16	0.226667	7.26932E-001	5.99596E-003	0.00000E+000	4.35865E-003	3.59960E-001	-1.10825E+000	3.57810E+000	10	...........
	17	0.24	7.33277E-001	5.99337E-003	0.00000E+000	4.39480E-003	3.59960E-001	-1.11649E+000	3.57810E+000	10	...........
	18	0.253333	7.39650E-001	5.99615E-003	0.00000E+000	4.43505E-003	3.59960E-001	-1.10666E+000	3.57810E+000	10	...........
	19	0.266667	7.46000E-001	5.99496E-003	0.00000E+000	4.47224E-003	3.59960E-001	-1.10808E+000	3.57810E+000	10	...........
	20	0.28	7.52300E-001	5.99263E-003	0.00000E+000	4.50826E-003	3.59960E-001	-1.11663E+000	3.57810E+000	10	...........
	21	0.293333	7.58633E-001	5.99210E-003	0.00000E+000	4.54581E-003	3.59960E-001	-1.10688E+000	3.57810E+000	10	...........
	22	0.306667	7.64900E-001	5.99457E-003	0.00000E+000	4.58525E-003	3.59960E-001	-1.10801E+000	3.57810E+000	10	...........
	23	0.32	7.71202E-001	5.99239E-003	0.00000E+000	4.62135E-003	3.59960E-001	-1.11676E+000	3.57810E+000	10	...........
	24	0.333333	7.77479E-001	5.99550E-003	0.00000E+000	4.66138E-003	3.59960E-001	-1.10675E+000	3.57810E+000	10	...........
	25	0.346667	7.83739E-001	5.99754E-003	0.00000E+000	4.70050E-003	3.59960E-001	-1.10791E+000	3.57810E+000	10	...........
	26	0.36	7.89958E-001	5.99782E-003	0.00000E+000	4.73802E-003	3.59960E-001	-1.11650E+000	3.57810E+000	10	...........
	27	0.373333	7.96207E-001	5.98799E-003	0.00000E+000	4.76768E-003	3.59960E-001	-1.10620E+000	3.57810E+000	10	...........
	28	0.386667	8.02440E-001	5.99415E-003	0.00000E+000	4.80994E-003	3.59960E-001	-1.10750E+000	3.57810E+000	10	...........
	29	0.4	8.08688E-001	5.99189E-003	0.00000E+000	4.84557E-003	3.59960E-001	-1.11629E+000	3.57810E+000	10	...........
	30	0.413333	8.14878E-001	5.99245E-003	0.00000E+000	4.88311E-003	3.59960E-001	-1.10614E+000	3.57810E+000	10	...........
	31	0.426667	8.21070E-001	5.99219E-003	0.00000E+000	4.92001E-003	3.59960E-001	-1.10759E+000	3.57810E+000	10	...........
	32	0.44	8.27240E-001	5.99096E-003	0.00000E+000	4.95597E-003	3.59960E-001	-1.11616E+000	3.57810E+000	10	...........
	33	0.453333	8.33395E-001	5.99732E-003	0.00000E+000	4.99813E-003	3.59960E-001	-1.10605E+000	3.57810E+000	10	...........
	34	0.466667	8.39566E-001	5.99410E-003	0.00000E+000	5.03245E-003	3.59960E-001	-1.10738E+000	3.57810E+000	10	...........
	35	0.48	8.45743E-001	5.99327E-003	0.00000E+000	5.06877E-003	3.59960E-001	-1.11629E+000	3.57810E+000	10	...........
	36	0.493333	8.51877E-001	5.99829E-003	0.00000E+000	5.10980E-003	3.59960E-001	-1.10608E+000	3.57810E+000	10	...........
	37	0.506667	8.58033E-001	5.99580E-003	0.00000E+000	5.14460E-003	3.59960E-001	-1.10707E+000	3.57810E+000	10	...........
	38	0.52	8.64145E-001	5.99517E-003	0.00000E+000	5.18069E-003	3.59960E-001	-1.11604E+000	3.57810E+000	10	...........
	39	0.533333	8.70235E-001	5.99297E-003	0.00000E+000	5.21529E-003	3.59960E-001	-1.10614E+000	3.57810E+000	10	...........
	40	0.546667	8.76283E-001	5.99232E-003	0.00000E+000	5.25097E-003	3.59960E-001	-1.10712E+000	3.57810E+000	10	...........
	41	0.56	8.82335E-001	5.99283E-003	0.00000E+000	5.28769E-003	3.59960E-001	-1.11611E+000	3.57810E+000	10	...........
	42	0.573333	8.88360E-001	5.99429E-003	0.00000E+000	5.32509E-003	3.59960E-001	-1.10606E+000	3.57810E+000	10	...........
	43	0.586667	8.94376E-001	5.99302E-003	0.00000E+000	5.36001E-003	3.59960E-001	-1.10722E+000	3.57810E+000	10	...........
	44	0.6	9.00373E-001	5.99705E-003	0.00000E+000	5.39958E-003	3.59960E-001	-1.11646E+000	3.57810E+000	10	...........
	45	0.613333	9.06348E-001	5.99711E-003	0.00000E+000	5.43547E-003	3.59960E-001	-1.10643E+000	3.57810E+000	10	...........
	46	0.626667	9.12305E-001	5.99197E-003	0.00000E+000	5.46650E-003	3.59960E-001	-1.10714E+000	3.57810E+000	10	...........
	47	0.64	9.18224E-001	5.99100E-003	0.00000E+000	5.50107E-003	3.59960E-001	-1.11616E+000	3.57810E+000	10	...........
	48	0.653333	9.24156E-001	5.99333E-003	0.00000E+000	5.53877E-003	3.59960E-001	-1.10623E+000	3.57810E+000	10	...........
	49	0.666667	9.30033E-001	5.99767E-003	0.00000E+000	5.57803E-003	3.59960E-001	-1.10719E+000	3.57810E+000	10	...........
	50	0.68	9.35843E-001	5.99444E-003	0.00000E+000	5.60985E-003	3.59960E-001	-1.11618E+000	3.57810E+000	10	...........
	51	0.693333	9.41627E-001	5.98844E-003	0.00000E+000	5.63888E-003	3.59960E-001	-1.10605E+000	3.57810E+000	10	...........
	52	0.706667	9.47433E-001	5.99142E-003	0.00000E+000	5.67647E-003	3.59960E-001	-1.10650E+000	3.57810E+000	10	...........
	53	0.72	9.53149E-001	5.99391E-003	0.00000E+000	5.71309E-003	3.59960E-001	-1.11576E+000	3.57810E+000	10	...........
	54	0.733333	9.58830E-001	5.99164E-003	0.00000E+000	5.74497E-003	3.59960E-001	-1.10604E+000	3.57810E+000	10	...........
	55	0.746667	9.64505E-001	5.99854E-003	0.00000E+000	5.78562E-003	3.59960E-001	-1.10673E+000	3.57810E+000	10	...........
	56	0.76	9.70095E-001	5.99162E-003	0.00000E+000	5.81244E-003	3.59960E-001	-1.11575E+000	3.57810E+000	10	...........
	57	0.773333	9.75730E-001	5.99772E-003	0.00000E+000	5.85216E-003	3.59960E-001	-1.10584E+000	3.57810E+000	10	...........
	58	0.786667	9.81278E-001	5.99505E-003	0.00000E+000	5.88282E-003	3.59960E-001	-1.10647E+000	3.57810E+000	10	...........
	59	0.8	9.86805E-001	5.99735E-003	0.00000E+000	5.91822E-003	3.59960E-001	-1.11566E+000	3.57810E+000	10	...........
	60	0.813333	9.92249E-001	5.99430E-003	0.00000E+000	5.94784E-003	3.59960E-001	-1.10581E+000	3.57810E+000	10	...........
	61	0.826667	9.97699E-001	5.99612E-003	0.00000E+000	5.98232E-003	3.59960E-001	-1.10650E+000	3.57810E+000	10	...........
STARTTIMEOFFSET	QUANT	542.7849	Start Time Offset (s)

File: CHARGE_#302.DTA
EXPLAIN
TAG	PWR800_CHARGE
TITLE	LABEL	PWR Cyclic Charge Discharge (Cell) - Charge Step	Test &Identifier
DATE	LABEL	22-6-2017	Date
TIME	LABEL	15:48:00	Time
NOTES	NOTES	3	&Notes...
	supercap test cell
	0.6mg
	6M KOH
PSTAT	PSTAT	IFC5000-01520	Potentiostat
CAPACITY	QUANT	1.00000E-003	Capacity (A-hr)
CELLTYPE	SELECTOR	1	&Cell Type
WORKINGCONNECTION	SELECTOR	0	&Working Lead
MAXCHARGETIME	VARIABLEANDUNITS	1.00000E+002	s	1.00000E+002	second(s)	Max &Charge Time
CHARGECURRENT	QUANT	6.00000E-003	&Charge Current (A)
VOLTAGEFINISH	TWOPARAM	F	1.00000E-003	3.60000E+003	&Voltage Finish	 I (A) < 	Max Time(s)
SAMPLETIME	QUANT	1.00000E-002	Sa&mple Period (s)
CHARGESTOPAT1	MULTIPARAM	4	1.00000E+000	Charge Stop At &1	Voltage > Limit	V
CHARGESTOPAT2	MULTIPARAM	0	0.00000E+000	Charge Stop At &2	None	N/A
AESBHCSELECTOR	TOGGLE	F	Save Both Half Cells
IRCOMP	TOGGLE	F	IR &Measure
EOC	QUANT	0	Open Circuit (V)
SEQUENCER	TOGGLE	TRUE	Run as Sequence
PSTATMODEL	IQUANT	53	Pstat Model
PSTATSECTION	LABEL	IFC5000-01520	Pstat Section
PSTATSERIALNO	LABEL	01520	Pstat Serial Number
CTRLMODE	IQUANT	0	Control Mode
ELECTROMETER	IQUANT	1	RE=0 or CS=1
IESTAB	IQUANT	0	I/E Stability
CASPEED	IQUANT	4	Control Amp Speed
CONVENTION	IQUANT	1	Current Convention
ICHRANGE	IQUANT	2	Ich Range
ICHRANGEMODE	TOGGLE	T	Ich Auto Range
ICHOFFSETENABLE	TOGGLE	F	Ich Offset Enable
ICHOFFSET	QUANT	0	Ich Offset (V)
ICHFILTER	IQUANT	1	Ich Filter
VCHRANGE	IQUANT	2	Vch Range
VCHRANGEMODE	TOGGLE	T	Vch Auto Range
VCHOFFSETENABLE	TOGGLE	F	Vch Offset Enable
VCHOFFSET	QUANT	0	Vch Offset (V)
VCHFILTER	IQUANT	1	Vch Filter
IERANGELOWERLIMIT	IQUANT	9	I/E Range Lower Limit
IERANGEMODE	TOGGLE	F	I/E AutoRange
IERANGE	IQUANT	10	I/E Range
ACHSELECT	IQUANT	1	Ach Select
ACHRANGE	IQUANT	2	Ach Range
ACHOFFSETENABLE	TOGGLE	F	Ach Offset Enable
ACHOFFSET	QUANT	0	Ach Offset (V)
ACHFILTER	IQUANT	1	Ach Filter
CABLEID	IQUANT	14	Cable ID
DCCALDATE	LABEL	20-10-2016	DC Calibration Date
ACCALDATE	LABEL	12/3/2015	AC Calibration Date
FRAMEWORKVERSION	QUANT	7.01	Framework Version
INSTRUMENTVERSION	LABEL	4.00	Instrument Version
CURVE	TABLE	62
	Pt	T	Vf	Im	Vu	Pwr	Sig	Ach	Temp	IERange	Over
	#	s	V	A	V	W	V	V	deg C	#	bits
	0	0.013333	6.16462E-001	5.99120E-003	0.00000E+000	3.69335E-003	3.59960E-001	-1.10962E+000	3.57670E+000	10	...........
	1	0.026667	6.25052E-001	5.99420E-003	0.00000E+000	3.74668E-003	3.59960E-001	-1.11637E+000	3.57670E+000	10	...........
	2	0.04	6.33007E-001	5.99529E-003	0.00000E+000	3.79506E-003	3.59960E-001	-1.11679E+000	3.57670E+000	10	...........
	3	0.053333	6.40526E-001	5.99160E-003	0.00000E+000	3.83778E-003	3.59960E-001	-1.10968E+000	3.57670E+000	10	...........
	4	0.066667	6.47746E-001	5.99354E-003	0.00000E+000	3.88229E-003	3.59960E-001	-1.11653E+000	3.57670E+000	10	...........
	5	0.08	6.54846E-001	5.99098E-003	0.00000E+000	3.92317E-003	3.59960E-001	-1.11696E+000	3.57670E+000	10	...........
	6	0.093333	6.61720E-001	5.99353E-003	0.00000E+000	3.96604E-003	3.59960E-001	-1.11020E+000	3.57670E+000	10	...........
	7	0.106667	6.68535E-001	5.99137E-003	0.00000E+000	4.00544E-003	3.59960E-001	-1.11681E+000	3.57670E+000	10	...........
	8	0.12	6.75239E-001	5.99550E-003	0.00000E+000	4.04840E-003	3.59960E-001	-1.11676E+000	3.57670E+000	10	...........
	9	0.133333	6.81865E-001	5.99165E-003	0.00000E+000	4.08550E-003	3.59960E-001	-1.10980E+000	3.57670E+000	10	...........
	10	0.146667	6.88406E-001	5.98920E-003	0.00000E+000	4.12300E-003	3.59960E-001	-1.11630E+000	3.57670E+000	10	...........
	11	0.16	6.94966E-001	5.99288E-003	0.00000E+000	4.16485E-003	3.59960E-001	-1.11676E+000	3.57670E+000	10	...........
	12	0.173333	7.01427E-001	5.99308E-003	0.00000E+000	4.20371E-003	3.59960E-001	-1.10965E+000	3.57670E+000	10	...........
	13	0.186667	7.07885E-001	5.99419E-003	0.00000E+000	4.24319E-003	3.59960E-001	-1.11560E+000	3.57670E+000	10	...........
	14	0.2	7.14275E-001	5.99468E-003	0.00000E+000	4.28185E-003	3.59960E-001	-1.11590E+000	3.57670E+000	10	...........
	15	0.213333	7.20738E-001	5.99553E-003	0.00000E+000	4.32121E-003	3.59960E-001	-1.10857E+000	3.57670E+000	10	...........
	16	0.226667	7.27153E-001	5.99506E-003	0.00000E+000	4.35933E-003	3.59960E-001	-1.11525E+000	3.57670E+000	10	...........
	17	0.24	7.33495E-001	5.99573E-003	0.00000E+000	4.39784E-003	3.59960E-001	-1.11561E+000	3.57670E+000	10	...........
	18	0.253333	7.39818E-001	5.99322E-003	0.00000E+000	4.43389E-003	3.59960E-001	-1.10821E+000	3.57670E+000	10	...........
	19	0.266667	7.46166E-001	5.99330E-003	0.00000E+000	4.47200E-003	3.59960E-001	-1.11458E+000	3.57680E+000	10	...........
	20	0.28	7.52441E-001	5.99531E-003	0.00000E+000	4.51112E-003	3.59960E-001	-1.11540E+000	3.57690E+000	10	...........
	21	0.293333	7.58771E-001	5.99448E-003	0.00000E+000	4.54844E-003	3.59960E-001	-1.10829E+000	3.57690E+000	10	...........
	22	0.306667	7.65038E-001	5.98919E-003	0.00000E+000	4.58196E-003	3.59960E-001	-1.11453E+000	3.57690E+000	10	...........
	23	0.32	7.71321E-001	5.99273E-003	0.00000E+000	4.62231E-003	3.59960E-001	-1.11528E+000	3.57690E+000	10	...........
	24	0.333333	7.77559E-001	5.99538E-003	0.00000E+000	4.66176E-003	3.59960E-001	-1.10820E+000	3.57690E+000	10	...........
	25	0.346667	7.83853E-001	5.99406E-003	0.00000E+000	4.69846E-003	3.59960E-001	-1.11447E+000	3.57690E+000	10	...........
	26	0.36	7.90120E-001	5.99753E-003	0.00000E+000	4.73877E-003	3.59960E-001	-1.11527E+000	3.57690E+000	10	...........
	27	0.373333	7.96344E-001	5.99633E-003	0.00000E+000	4.77514E-003	3.59960E-001	-1.10812E+000	3.57690E+000	10	...........
	28	0.386667	8.02566E-001	5.99830E-003	0.00000E+000	4.81403E-003	3.59960E-001	-1.11429E+000	3.57690E+000	10	...........
	29	0.4	8.08777E-001	5.99098E-003	0.00000E+000	4.84536E-003	3.59960E-001	-1.11508E+000	3.57690E+000	10	...........
	30	0.413333	8.14937E-001	5.99750E-003	0.00000E+000	4.88759E-003	3.59960E-001	-1.10783E+000	3.57690E+000	10	...........
	31	0.426667	8.21154E-001	5.99117E-003	0.00000E+000	4.91968E-003	3.59960E-001	-1.11397E+000	3.57690E+000	10	...........
	32	0.44	8.27359E-001	5.99348E-003	0.00000E+000	4.95876E-003	3.59960E-001	-1.11476E+000	3.57690E+000	10	...........
	33	0.453333	8.33500E-001	5.99306E-003	0.00000E+000	4.99522E-003	3.59960E-001	-1.10710E+000	3.57690E+000	10	...........
	34	0.466667	8.39647E-001	5.99468E-003	0.00000E+000	5.03341E-003	3.59960E-001	-1.11309E+000	3.57690E+000	10	...........
	35	0.48	8.45791E-001	5.99804E-003	0.00000E+000	5.07308E-003	3.59960E-001	-1.11392E+000	3.57690E+000	10	...........
	36	0.493333	8.51924E-001	5.99940E-003	0.00000E+000	5.11104E-003	3.59960E-001	-1.10649E+000	3.57690E+000	10	...........
	37	0.506667	8.58028E-001	5.99369E-003	0.00000E+000	5.14275E-003	3.59960E-001	-1.11199E+000	3.57690E+000	10	...........
	38	0.52	8.64133E-001	5.99197E-003	0.00000E+000	5.17785E-003	3.59960E-001	-1.11311E+000	3.57690E+000	10	...........
	39	0.533333	8.70252E-001	5.99417E-003	0.00000E+000	5.21644E-003	3.59960E-001	-1.10559E+000	3.57690E+000	10	...........
	40	0.546667	8.76342E-001	5.99839E-003	0.00000E+000	5.25664E-003	3.59960E-001	-1.11168E+000	3.57690E+000	10	...........
	41	0.56	8.82383E-001	5.99444E-003	0.00000E+000	5.28939E-003	3.59960E-001	-1.11300E+000	3.57690E+000	10	...........
	42	0.573333	8.88428E-001	5.99370E-003	0.00000E+000	5.32497E-003	3.59960E-001	-1.10543E+000	3.57690E+000	10	...........
	43	0.586667	8.94402E-001	5.99737E-003	0.00000E+000	5.36406E-003	3.59960E-001	-1.11151E+000	3.57690E+000	10	...........
	44	0.6	9.00437E-001	5.99600E-003	0.00000E+000	5.39902E-003	3.59960E-001	-1.11304E+000	3.57690E+000	10	...........
	45	0.613333	9.06419E-001	5.98930E-003	0.00000E+000	5.42881E-003	3.59960E-001	-1.10567E+000	3.57690E+000	10	...........
	46	0.626667	9.12382E-001	5.99525E-003	0.00000E+000	5.46996E-003	3.59960E-001	-1.11169E+000	3.57690E+000	10	...........
	47	0.64	9.18311E-001	5.99275E-003	0.00000E+000	5.50321E-003	3.59960E-001	-1.11345E+000	3.57690E+000	10	...........
	48	0.653333	9.24231E-001	5.99540E-003	0.00000E+000	5.54113E-003	3.59960E-001	-1.10572E+000	3.57690E+000	10	...........
	49	0.666667	9.30124E-001	5.99768E-003	0.00000E+000	5.57859E-003	3.59960E-001	-1.11160E+000	3.57690E+000	10	...........
	50	0.68	9.35945E-001	5.99149E-003	0.00000E+000	5.60770E-003	3.59960E-001	-1.11334E+000	3.57690E+000	10	...........
	51	0.693333	9.41710E-001	5.99698E-003	0.00000E+000	5.64742E-003	3.59960E-001	-1.10576E+000	3.57690E+000	10	...........
	52	0.706667	9.47486E-001	5.99125E-003	0.00000E+000	5.67662E-003	3.59960E-001	-1.11133E+000	3.57690E+000	10	...........
	53	0.72	9.53210E-001	5.98893E-003	0.00000E+000	5.70871E-003	3.59960E-001	-1.11318E+000	3.57690E+000	10	...........
	54	0.733333	9.58883E-001	5.99302E-003	0.00000E+000	5.74660E-003	3.59960E-001	-1.10540E+000	3.57690E+000	10	...........
	55	0.746667	9.64526E-001	5.99585E-003	0.00000E+000	5.78315E-003	3.59960E-001	-1.11100E+000	3.57690E+000	10	...........
	56	0.76	9.70147E-001	5.99269E-003	0.00000E+000	5.81378E-003	3.59960E-001	-1.11301E+000	3.57690E+000	10	...........
	57	0.773333	9.75785E-001	5.99646E-003	0.00000E+000	5.85126E-003	3.59960E-001	-1.10501E+000	3.57690E+000	10	...........
	58	0.786667	9.81311E-001	5.99672E-003	0.00000E+000	5.88465E-003	3.59960E-001	-1.11049E+000	3.57690E+000	10	...........
	59	0.8	9.86812E-001	5.99531E-003	0.00000E+000	5.91625E-003	3.59960E-001	-1.11268E+000	3.57690E+000	10	...........
	60	0.813333	9.92250E-001	5.99760E-003	0.00000E+000	5.95112E-003	3.59960E-001	-1.10509E+000	3.57690E+000	10	...........
	61	0.826667	9.97684E-001	5.99416E-003	0.00000E+000	5.98028E-003	3.59960E-001	-1.11009E+000	3.57690E+000	10	...........
STARTTIMEOFFSET	QUANT	544.4299	Start Time Offset (s)