Folder: Tesis/Data/CV_CRGO300517_1/PWRCCD_CRGO300517_1/CHARGE_DISCHARGE (part 111)

File: CHARGE_#221.DTA
EXPLAIN
TAG	PWR800_CHARGE
TITLE	LABEL	PWR Cyclic Charge Discharge (Cell) - Charge Step	Test &Identifier
DATE	LABEL	22-6-2017	Date
TIME	LABEL	15:44:41	Time
NOTES	NOTES	3	&Notes...
	supercap test cell
	0.6mg
	6M KOH
PSTAT	PSTAT	IFC5000-01520	Potentiostat
CAPACITY	QUANT	1.00000E-003	Capacity (A-hr)
CELLTYPE	SELECTOR	1	&Cell Type
WORKINGCONNECTION	SELECTOR	0	&Working Lead
MAXCHARGETIME	VARIABLEANDUNITS	1.00000E+002	s	1.00000E+002	second(s)	Max &Charge Time
CHARGECURRENT	QUANT	6.00000E-003	&Charge Current (A)
VOLTAGEFINISH	TWOPARAM	F	1.00000E-003	3.60000E+003	&Voltage Finish	 I (A) < 	Max Time(s)
SAMPLETIME	QUANT	1.00000E-002	Sa&mple Period (s)
CHARGESTOPAT1	MULTIPARAM	4	1.00000E+000	Charge Stop At &1	Voltage > Limit	V
CHARGESTOPAT2	MULTIPARAM	0	0.00000E+000	Charge Stop At &2	None	N/A
AESBHCSELECTOR	TOGGLE	F	Save Both Half Cells
IRCOMP	TOGGLE	F	IR &Measure
EOC	QUANT	0	Open Circuit (V)
SEQUENCER	TOGGLE	TRUE	Run as Sequence
PSTATMODEL	IQUANT	53	Pstat Model
PSTATSECTION	LABEL	IFC5000-01520	Pstat Section
PSTATSERIALNO	LABEL	01520	Pstat Serial Number
CTRLMODE	IQUANT	0	Control Mode
ELECTROMETER	IQUANT	1	RE=0 or CS=1
IESTAB	IQUANT	0	I/E Stability
CASPEED	IQUANT	4	Control Amp Speed
CONVENTION	IQUANT	1	Current Convention
ICHRANGE	IQUANT	2	Ich Range
ICHRANGEMODE	TOGGLE	T	Ich Auto Range
ICHOFFSETENABLE	TOGGLE	F	Ich Offset Enable
ICHOFFSET	QUANT	0	Ich Offset (V)
ICHFILTER	IQUANT	1	Ich Filter
VCHRANGE	IQUANT	2	Vch Range
VCHRANGEMODE	TOGGLE	T	Vch Auto Range
VCHOFFSETENABLE	TOGGLE	F	Vch Offset Enable
VCHOFFSET	QUANT	0	Vch Offset (V)
VCHFILTER	IQUANT	1	Vch Filter
IERANGELOWERLIMIT	IQUANT	9	I/E Range Lower Limit
IERANGEMODE	TOGGLE	F	I/E AutoRange
IERANGE	IQUANT	10	I/E Range
ACHSELECT	IQUANT	1	Ach Select
ACHRANGE	IQUANT	2	Ach Range
ACHOFFSETENABLE	TOGGLE	F	Ach Offset Enable
ACHOFFSET	QUANT	0	Ach Offset (V)
ACHFILTER	IQUANT	1	Ach Filter
CABLEID	IQUANT	14	Cable ID
DCCALDATE	LABEL	20-10-2016	DC Calibration Date
ACCALDATE	LABEL	12/3/2015	AC Calibration Date
FRAMEWORKVERSION	QUANT	7.01	Framework Version
INSTRUMENTVERSION	LABEL	4.00	Instrument Version
CURVE	TABLE	65
	Pt	T	Vf	Im	Vu	Pwr	Sig	Ach	Temp	IERange	Over
	#	s	V	A	V	W	V	V	deg C	#	bits
	0	0.013333	6.08492E-001	5.99633E-003	0.00000E+000	3.64872E-003	3.59960E-001	-1.08290E+000	3.57670E+000	10	...........
	1	0.026667	6.17059E-001	5.99419E-003	0.00000E+000	3.69877E-003	3.59960E-001	-1.08676E+000	3.57670E+000	10	...........
	2	0.04	6.24830E-001	5.99477E-003	0.00000E+000	3.74572E-003	3.59960E-001	-1.09097E+000	3.57670E+000	10	...........
	3	0.053333	6.32221E-001	5.99569E-003	0.00000E+000	3.79060E-003	3.59960E-001	-1.08267E+000	3.57670E+000	10	...........
	4	0.066667	6.39334E-001	5.98979E-003	0.00000E+000	3.82948E-003	3.59960E-001	-1.08690E+000	3.57670E+000	10	...........
	5	0.08	6.46261E-001	5.99481E-003	0.00000E+000	3.87421E-003	3.59960E-001	-1.09097E+000	3.57670E+000	10	...........
	6	0.093333	6.53089E-001	5.99501E-003	0.00000E+000	3.91528E-003	3.59960E-001	-1.08284E+000	3.57680E+000	10	...........
	7	0.106667	6.59787E-001	5.99293E-003	0.00000E+000	3.95405E-003	3.59960E-001	-1.08664E+000	3.57690E+000	10	...........
	8	0.12	6.66416E-001	5.99595E-003	0.00000E+000	3.99580E-003	3.59960E-001	-1.09084E+000	3.57690E+000	10	...........
	9	0.133333	6.72932E-001	5.99104E-003	0.00000E+000	4.03156E-003	3.59960E-001	-1.08286E+000	3.57690E+000	10	...........
	10	0.146667	6.79388E-001	5.99120E-003	0.00000E+000	4.07035E-003	3.59960E-001	-1.08696E+000	3.57690E+000	10	...........
	11	0.16	6.85805E-001	5.99288E-003	0.00000E+000	4.10995E-003	3.59960E-001	-1.09088E+000	3.57690E+000	10	...........
	12	0.173333	6.92225E-001	5.99010E-003	0.00000E+000	4.14650E-003	3.59960E-001	-1.08274E+000	3.57690E+000	10	...........
	13	0.186667	6.98569E-001	5.99368E-003	0.00000E+000	4.18700E-003	3.59960E-001	-1.08689E+000	3.57690E+000	10	...........
	14	0.2	7.04877E-001	5.99310E-003	0.00000E+000	4.22440E-003	3.59960E-001	-1.09076E+000	3.57690E+000	10	...........
	15	0.213333	7.11165E-001	5.99348E-003	0.00000E+000	4.26235E-003	3.59960E-001	-1.08272E+000	3.57690E+000	10	...........
	16	0.226667	7.17463E-001	5.99347E-003	0.00000E+000	4.30009E-003	3.59960E-001	-1.08700E+000	3.57690E+000	10	...........
	17	0.24	7.23731E-001	5.99855E-003	0.00000E+000	4.34133E-003	3.59960E-001	-1.09073E+000	3.57690E+000	10	...........
	18	0.253333	7.29972E-001	5.98959E-003	0.00000E+000	4.37223E-003	3.59960E-001	-1.08246E+000	3.57690E+000	10	...........
	19	0.266667	7.36150E-001	5.99652E-003	0.00000E+000	4.41434E-003	3.59960E-001	-1.08664E+000	3.57690E+000	10	...........
	20	0.28	7.42389E-001	5.99123E-003	0.00000E+000	4.44782E-003	3.59960E-001	-1.09046E+000	3.57690E+000	10	...........
	21	0.293333	7.48607E-001	5.99584E-003	0.00000E+000	4.48853E-003	3.59960E-001	-1.08222E+000	3.57690E+000	10	...........
	22	0.306667	7.54741E-001	5.99634E-003	0.00000E+000	4.52568E-003	3.59960E-001	-1.08644E+000	3.57690E+000	10	...........
	23	0.32	7.60929E-001	5.99535E-003	0.00000E+000	4.56203E-003	3.59960E-001	-1.09020E+000	3.57690E+000	10	...........
	24	0.333333	7.67080E-001	5.99389E-003	0.00000E+000	4.59779E-003	3.59960E-001	-1.08226E+000	3.57690E+000	10	...........
	25	0.346667	7.73251E-001	5.99529E-003	0.00000E+000	4.63587E-003	3.59960E-001	-1.08664E+000	3.57690E+000	10	...........
	26	0.36	7.79421E-001	5.99689E-003	0.00000E+000	4.67410E-003	3.59960E-001	-1.09029E+000	3.57690E+000	10	...........
	27	0.373333	7.85561E-001	5.99452E-003	0.00000E+000	4.70906E-003	3.59960E-001	-1.08192E+000	3.57690E+000	10	...........
	28	0.386667	7.91709E-001	5.99168E-003	0.00000E+000	4.74367E-003	3.59960E-001	-1.08633E+000	3.57690E+000	10	...........
	29	0.4	7.97822E-001	5.99540E-003	0.00000E+000	4.78326E-003	3.59960E-001	-1.09012E+000	3.57690E+000	10	...........
	30	0.413333	8.03921E-001	5.99309E-003	0.00000E+000	4.81798E-003	3.59960E-001	-1.08229E+000	3.57690E+000	10	...........
	31	0.426667	8.10059E-001	5.99803E-003	0.00000E+000	4.85875E-003	3.59960E-001	-1.08668E+000	3.57690E+000	10	...........
	32	0.44	8.16150E-001	5.99669E-003	0.00000E+000	4.89420E-003	3.59960E-001	-1.09003E+000	3.57690E+000	10	...........
	33	0.453333	8.22251E-001	5.99123E-003	0.00000E+000	4.92629E-003	3.59960E-001	-1.08219E+000	3.57690E+000	10	...........
	34	0.466667	8.28317E-001	5.99149E-003	0.00000E+000	4.96285E-003	3.59960E-001	-1.08661E+000	3.57690E+000	10	...........
	35	0.48	8.34341E-001	5.99263E-003	0.00000E+000	4.99990E-003	3.59960E-001	-1.09021E+000	3.57690E+000	10	...........
	36	0.493333	8.40380E-001	5.99615E-003	0.00000E+000	5.03904E-003	3.59960E-001	-1.08217E+000	3.57690E+000	10	...........
	37	0.506667	8.46468E-001	5.99385E-003	0.00000E+000	5.07361E-003	3.59960E-001	-1.08665E+000	3.57690E+000	10	...........
	38	0.52	8.52509E-001	5.99455E-003	0.00000E+000	5.11041E-003	3.59960E-001	-1.09023E+000	3.57690E+000	10	...........
	39	0.533333	8.58544E-001	5.99557E-003	0.00000E+000	5.14747E-003	3.59960E-001	-1.08220E+000	3.57690E+000	10	...........
	40	0.546667	8.64581E-001	5.99769E-003	0.00000E+000	5.18549E-003	3.59960E-001	-1.08677E+000	3.57690E+000	10	...........
	41	0.56	8.70621E-001	5.99722E-003	0.00000E+000	5.22131E-003	3.59960E-001	-1.09014E+000	3.57690E+000	10	...........
	42	0.573333	8.76608E-001	5.99562E-003	0.00000E+000	5.25581E-003	3.59960E-001	-1.08215E+000	3.57690E+000	10	...........
	43	0.586667	8.82604E-001	5.99289E-003	0.00000E+000	5.28935E-003	3.59960E-001	-1.08620E+000	3.57690E+000	10	...........
	44	0.6	8.88560E-001	5.99414E-003	0.00000E+000	5.32615E-003	3.59960E-001	-1.08977E+000	3.57690E+000	10	...........
	45	0.613333	8.94477E-001	5.99329E-003	0.00000E+000	5.36086E-003	3.59960E-001	-1.08182E+000	3.57690E+000	10	...........
	46	0.626667	9.00428E-001	5.98957E-003	0.00000E+000	5.39318E-003	3.59960E-001	-1.08628E+000	3.57690E+000	10	...........
	47	0.64	9.06317E-001	5.99428E-003	0.00000E+000	5.43272E-003	3.59960E-001	-1.08950E+000	3.57690E+000	10	...........
	48	0.653333	9.12234E-001	5.99570E-003	0.00000E+000	5.46948E-003	3.59960E-001	-1.08172E+000	3.57690E+000	10	...........
	49	0.666667	9.18052E-001	5.99440E-003	0.00000E+000	5.50317E-003	3.59960E-001	-1.08628E+000	3.57690E+000	10	...........
	50	0.68	9.23923E-001	5.99113E-003	0.00000E+000	5.53535E-003	3.59960E-001	-1.08974E+000	3.57690E+000	10	...........
	51	0.693333	9.29722E-001	5.99308E-003	0.00000E+000	5.57190E-003	3.59960E-001	-1.08185E+000	3.57690E+000	10	...........
	52	0.706667	9.35484E-001	5.98846E-003	0.00000E+000	5.60211E-003	3.59960E-001	-1.08614E+000	3.57690E+000	10	...........
	53	0.72	9.41226E-001	5.99344E-003	0.00000E+000	5.64118E-003	3.59960E-001	-1.08943E+000	3.57690E+000	10	...........
	54	0.733333	9.46982E-001	5.99521E-003	0.00000E+000	5.67735E-003	3.59960E-001	-1.08180E+000	3.57690E+000	10	...........
	55	0.746667	9.52648E-001	5.99304E-003	0.00000E+000	5.70926E-003	3.59960E-001	-1.08633E+000	3.57690E+000	10	...........
	56	0.76	9.58307E-001	5.99490E-003	0.00000E+000	5.74495E-003	3.59960E-001	-1.08947E+000	3.57690E+000	10	...........
	57	0.773333	9.63892E-001	5.99233E-003	0.00000E+000	5.77596E-003	3.59960E-001	-1.08162E+000	3.57690E+000	10	...........
	58	0.786667	9.69500E-001	5.99054E-003	0.00000E+000	5.80783E-003	3.59960E-001	-1.08639E+000	3.57690E+000	10	...........
	59	0.8	9.75072E-001	5.99406E-003	0.00000E+000	5.84464E-003	3.59960E-001	-1.08963E+000	3.57690E+000	10	...........
	60	0.813333	9.80623E-001	5.99653E-003	0.00000E+000	5.88034E-003	3.59960E-001	-1.08178E+000	3.57690E+000	10	...........
	61	0.826667	9.86085E-001	5.98995E-003	0.00000E+000	5.90660E-003	3.59960E-001	-1.08641E+000	3.57690E+000	10	...........
	62	0.84	9.91496E-001	5.99527E-003	0.00000E+000	5.94429E-003	3.59960E-001	-1.08942E+000	3.57690E+000	10	...........
	63	0.853333	9.96912E-001	5.99483E-003	0.00000E+000	5.97632E-003	3.59960E-001	-1.08186E+000	3.57690E+000	10	...........
	64	0.856667	1.00027E+000	5.99842E-003	0.00000E+000	6.00007E-003	3.59960E-001	-1.09562E+000	3.57690E+000	10	...........
STARTTIMEOFFSET	QUANT	408.9033	Start Time Offset (s)

File: CHARGE_#222.DTA
EXPLAIN
TAG	PWR800_CHARGE
TITLE	LABEL	PWR Cyclic Charge Discharge (Cell) - Charge Step	Test &Identifier
DATE	LABEL	22-6-2017	Date
TIME	LABEL	15:44:43	Time
NOTES	NOTES	3	&Notes...
	supercap test cell
	0.6mg
	6M KOH
PSTAT	PSTAT	IFC5000-01520	Potentiostat
CAPACITY	QUANT	1.00000E-003	Capacity (A-hr)
CELLTYPE	SELECTOR	1	&Cell Type
WORKINGCONNECTION	SELECTOR	0	&Working Lead
MAXCHARGETIME	VARIABLEANDUNITS	1.00000E+002	s	1.00000E+002	second(s)	Max &Charge Time
CHARGECURRENT	QUANT	6.00000E-003	&Charge Current (A)
VOLTAGEFINISH	TWOPARAM	F	1.00000E-003	3.60000E+003	&Voltage Finish	 I (A) < 	Max Time(s)
SAMPLETIME	QUANT	1.00000E-002	Sa&mple Period (s)
CHARGESTOPAT1	MULTIPARAM	4	1.00000E+000	Charge Stop At &1	Voltage > Limit	V
CHARGESTOPAT2	MULTIPARAM	0	0.00000E+000	Charge Stop At &2	None	N/A
AESBHCSELECTOR	TOGGLE	F	Save Both Half Cells
IRCOMP	TOGGLE	F	IR &Measure
EOC	QUANT	0	Open Circuit (V)
SEQUENCER	TOGGLE	TRUE	Run as Sequence
PSTATMODEL	IQUANT	53	Pstat Model
PSTATSECTION	LABEL	IFC5000-01520	Pstat Section
PSTATSERIALNO	LABEL	01520	Pstat Serial Number
CTRLMODE	IQUANT	0	Control Mode
ELECTROMETER	IQUANT	1	RE=0 or CS=1
IESTAB	IQUANT	0	I/E Stability
CASPEED	IQUANT	4	Control Amp Speed
CONVENTION	IQUANT	1	Current Convention
ICHRANGE	IQUANT	2	Ich Range
ICHRANGEMODE	TOGGLE	T	Ich Auto Range
ICHOFFSETENABLE	TOGGLE	F	Ich Offset Enable
ICHOFFSET	QUANT	0	Ich Offset (V)
ICHFILTER	IQUANT	1	Ich Filter
VCHRANGE	IQUANT	2	Vch Range
VCHRANGEMODE	TOGGLE	T	Vch Auto Range
VCHOFFSETENABLE	TOGGLE	F	Vch Offset Enable
VCHOFFSET	QUANT	0	Vch Offset (V)
VCHFILTER	IQUANT	1	Vch Filter
IERANGELOWERLIMIT	IQUANT	9	I/E Range Lower Limit
IERANGEMODE	TOGGLE	F	I/E AutoRange
IERANGE	IQUANT	10	I/E Range
ACHSELECT	IQUANT	1	Ach Select
ACHRANGE	IQUANT	2	Ach Range
ACHOFFSETENABLE	TOGGLE	F	Ach Offset Enable
ACHOFFSET	QUANT	0	Ach Offset (V)
ACHFILTER	IQUANT	1	Ach Filter
CABLEID	IQUANT	14	Cable ID
DCCALDATE	LABEL	20-10-2016	DC Calibration Date
ACCALDATE	LABEL	12/3/2015	AC Calibration Date
FRAMEWORKVERSION	QUANT	7.01	Framework Version
INSTRUMENTVERSION	LABEL	4.00	Instrument Version
CURVE	TABLE	65
	Pt	T	Vf	Im	Vu	Pwr	Sig	Ach	Temp	IERange	Over
	#	s	V	A	V	W	V	V	deg C	#	bits
	0	0.013333	6.08439E-001	5.99740E-003	0.00000E+000	3.64905E-003	3.59960E-001	-1.08613E+000	3.57820E+000	10	...........
	1	0.026667	6.17036E-001	5.99249E-003	0.00000E+000	3.69758E-003	3.59960E-001	-1.09335E+000	3.57820E+000	10	...........
	2	0.04	6.24819E-001	5.99669E-003	0.00000E+000	3.74685E-003	3.59960E-001	-1.08386E+000	3.57820E+000	10	...........
	3	0.053333	6.32187E-001	5.99047E-003	0.00000E+000	3.78710E-003	3.59960E-001	-1.08633E+000	3.57820E+000	10	...........
	4	0.066667	6.39349E-001	5.99490E-003	0.00000E+000	3.83283E-003	3.59960E-001	-1.09313E+000	3.57820E+000	10	...........
	5	0.08	6.46288E-001	5.99462E-003	0.00000E+000	3.87425E-003	3.59960E-001	-1.08381E+000	3.57820E+000	10	...........
	6	0.093333	6.53069E-001	5.99363E-003	0.00000E+000	3.91426E-003	3.59960E-001	-1.08625E+000	3.57820E+000	10	...........
	7	0.106667	6.59771E-001	5.99431E-003	0.00000E+000	3.95487E-003	3.59960E-001	-1.09321E+000	3.57820E+000	10	...........
	8	0.12	6.66367E-001	5.99223E-003	0.00000E+000	3.99302E-003	3.59960E-001	-1.08380E+000	3.57820E+000	10	...........
	9	0.133333	6.72897E-001	5.99675E-003	0.00000E+000	4.03520E-003	3.59960E-001	-1.08630E+000	3.57820E+000	10	...........
	10	0.146667	6.79379E-001	5.99078E-003	0.00000E+000	4.07001E-003	3.59960E-001	-1.09303E+000	3.57820E+000	10	...........
	11	0.16	6.85812E-001	5.99622E-003	0.00000E+000	4.11228E-003	3.59960E-001	-1.08384E+000	3.57820E+000	10	...........
	12	0.173333	6.92189E-001	5.99743E-003	0.00000E+000	4.15136E-003	3.59960E-001	-1.08625E+000	3.57820E+000	10	...........
	13	0.186667	6.98550E-001	5.99506E-003	0.00000E+000	4.18785E-003	3.59960E-001	-1.09310E+000	3.57820E+000	10	...........
	14	0.2	7.04821E-001	5.99648E-003	0.00000E+000	4.22645E-003	3.59960E-001	-1.08377E+000	3.57820E+000	10	...........
	15	0.213333	7.11121E-001	5.99123E-003	0.00000E+000	4.26049E-003	3.59960E-001	-1.08638E+000	3.57820E+000	10	...........
	16	0.226667	7.17425E-001	5.98988E-003	0.00000E+000	4.29729E-003	3.59960E-001	-1.09320E+000	3.57820E+000	10	...........
	17	0.24	7.23711E-001	5.99308E-003	0.00000E+000	4.33726E-003	3.59960E-001	-1.08418E+000	3.57820E+000	10	...........
	18	0.253333	7.29957E-001	5.99592E-003	0.00000E+000	4.37676E-003	3.59960E-001	-1.08640E+000	3.57820E+000	10	...........
	19	0.266667	7.36164E-001	5.99298E-003	0.00000E+000	4.41181E-003	3.59960E-001	-1.09316E+000	3.57820E+000	10	...........
	20	0.28	7.42392E-001	5.99593E-003	0.00000E+000	4.45133E-003	3.59960E-001	-1.08390E+000	3.57820E+000	10	...........
	21	0.293333	7.48572E-001	5.99935E-003	0.00000E+000	4.49095E-003	3.59960E-001	-1.08628E+000	3.57820E+000	10	...........
	22	0.306667	7.54778E-001	5.99175E-003	0.00000E+000	4.52244E-003	3.59960E-001	-1.09295E+000	3.57820E+000	10	...........
	23	0.32	7.60946E-001	5.99501E-003	0.00000E+000	4.56188E-003	3.59960E-001	-1.08320E+000	3.57820E+000	10	...........
	24	0.333333	7.67120E-001	5.99211E-003	0.00000E+000	4.59667E-003	3.59960E-001	-1.08586E+000	3.57820E+000	10	...........
	25	0.346667	7.73291E-001	5.99480E-003	0.00000E+000	4.63573E-003	3.59960E-001	-1.09272E+000	3.57820E+000	10	...........
	26	0.36	7.79472E-001	5.99755E-003	0.00000E+000	4.67492E-003	3.59960E-001	-1.08349E+000	3.57820E+000	10	...........
	27	0.373333	7.85582E-001	5.99302E-003	0.00000E+000	4.70801E-003	3.59960E-001	-1.08597E+000	3.57820E+000	10	...........
	28	0.386667	7.91728E-001	5.99478E-003	0.00000E+000	4.74624E-003	3.59960E-001	-1.09244E+000	3.57820E+000	10	...........
	29	0.4	7.97854E-001	5.99405E-003	0.00000E+000	4.78238E-003	3.59960E-001	-1.08316E+000	3.57820E+000	10	...........
	30	0.413333	8.03923E-001	5.98890E-003	0.00000E+000	4.81461E-003	3.59960E-001	-1.08591E+000	3.57820E+000	10	...........
	31	0.426667	8.10048E-001	5.99342E-003	0.00000E+000	4.85495E-003	3.59960E-001	-1.09265E+000	3.57820E+000	10	...........
	32	0.44	8.16180E-001	5.99204E-003	0.00000E+000	4.89058E-003	3.59960E-001	-1.08327E+000	3.57820E+000	10	...........
	33	0.453333	8.22353E-001	5.99949E-003	0.00000E+000	4.93370E-003	3.59960E-001	-1.08579E+000	3.57820E+000	10	...........
	34	0.466667	8.28407E-001	5.99628E-003	0.00000E+000	4.96736E-003	3.59960E-001	-1.09237E+000	3.57820E+000	10	...........
	35	0.48	8.34443E-001	5.99414E-003	0.00000E+000	5.00176E-003	3.59960E-001	-1.08308E+000	3.57820E+000	10	...........
	36	0.493333	8.40509E-001	5.99433E-003	0.00000E+000	5.03829E-003	3.59960E-001	-1.08577E+000	3.57820E+000	10	...........
	37	0.506667	8.46577E-001	5.99416E-003	0.00000E+000	5.07452E-003	3.59960E-001	-1.09239E+000	3.57820E+000	10	...........
	38	0.52	8.52623E-001	5.99132E-003	0.00000E+000	5.10834E-003	3.59960E-001	-1.08320E+000	3.57820E+000	10	...........
	39	0.533333	8.58658E-001	5.99327E-003	0.00000E+000	5.14617E-003	3.59960E-001	-1.08568E+000	3.57820E+000	10	...........
	40	0.546667	8.64656E-001	5.99545E-003	0.00000E+000	5.18400E-003	3.59960E-001	-1.09244E+000	3.57820E+000	10	...........
	41	0.56	8.70665E-001	5.99020E-003	0.00000E+000	5.21546E-003	3.59960E-001	-1.08331E+000	3.57820E+000	10	...........
	42	0.573333	8.76652E-001	5.99343E-003	0.00000E+000	5.25415E-003	3.59960E-001	-1.08581E+000	3.57812E+000	10	...........
	43	0.586667	8.82638E-001	5.99306E-003	0.00000E+000	5.28970E-003	3.59960E-001	-1.09249E+000	3.57760E+000	10	...........
	44	0.6	8.88585E-001	5.99327E-003	0.00000E+000	5.32553E-003	3.59960E-001	-1.08315E+000	3.57760E+000	10	...........
	45	0.613333	8.94549E-001	5.99101E-003	0.00000E+000	5.35925E-003	3.59960E-001	-1.08567E+000	3.57760E+000	10	...........
	46	0.626667	9.00441E-001	5.99300E-003	0.00000E+000	5.39634E-003	3.59960E-001	-1.09268E+000	3.57760E+000	10	...........
	47	0.64	9.06309E-001	5.99643E-003	0.00000E+000	5.43462E-003	3.59960E-001	-1.08301E+000	3.57760E+000	10	...........
	48	0.653333	9.12209E-001	5.99483E-003	0.00000E+000	5.46854E-003	3.59960E-001	-1.08546E+000	3.57760E+000	10	...........
	49	0.666667	9.18069E-001	5.99383E-003	0.00000E+000	5.50275E-003	3.59960E-001	-1.09191E+000	3.57760E+000	10	...........
	50	0.68	9.23968E-001	5.99537E-003	0.00000E+000	5.53953E-003	3.59960E-001	-1.08282E+000	3.57760E+000	10	...........
	51	0.693333	9.29788E-001	5.99529E-003	0.00000E+000	5.57435E-003	3.59960E-001	-1.08534E+000	3.57760E+000	10	...........
	52	0.706667	9.35599E-001	5.99237E-003	0.00000E+000	5.60646E-003	3.59960E-001	-1.09219E+000	3.57760E+000	10	...........
	53	0.72	9.41307E-001	5.99370E-003	0.00000E+000	5.64191E-003	3.59960E-001	-1.08270E+000	3.57760E+000	10	...........
	54	0.733333	9.47058E-001	5.99392E-003	0.00000E+000	5.67659E-003	3.59960E-001	-1.08521E+000	3.57760E+000	10	...........
	55	0.746667	9.52723E-001	5.99487E-003	0.00000E+000	5.71144E-003	3.59960E-001	-1.09188E+000	3.57760E+000	10	...........
	56	0.76	9.58371E-001	5.99766E-003	0.00000E+000	5.74798E-003	3.59960E-001	-1.08295E+000	3.57760E+000	10	...........
	57	0.773333	9.64021E-001	5.99289E-003	0.00000E+000	5.77727E-003	3.59960E-001	-1.08519E+000	3.57760E+000	10	...........
	58	0.786667	9.69580E-001	5.99741E-003	0.00000E+000	5.81497E-003	3.59960E-001	-1.09180E+000	3.57760E+000	10	...........
	59	0.8	9.75205E-001	5.99744E-003	0.00000E+000	5.84873E-003	3.59960E-001	-1.08264E+000	3.57760E+000	10	...........
	60	0.813333	9.80711E-001	5.99174E-003	0.00000E+000	5.87616E-003	3.59960E-001	-1.08525E+000	3.57760E+000	10	...........
	61	0.826667	9.86153E-001	5.99635E-003	0.00000E+000	5.91331E-003	3.59960E-001	-1.09198E+000	3.57760E+000	10	...........
	62	0.84	9.91575E-001	5.99624E-003	0.00000E+000	5.94572E-003	3.59960E-001	-1.08280E+000	3.57760E+000	10	...........
	63	0.853333	9.97000E-001	5.99842E-003	0.00000E+000	5.98043E-003	3.59960E-001	-1.08507E+000	3.57760E+000	10	...........
	64	0.856667	1.00034E+000	6.00214E-003	0.00000E+000	6.00420E-003	3.59960E-001	-1.08397E+000	3.57760E+000	10	...........
STARTTIMEOFFSET	QUANT	410.6066	Start Time Offset (s)