Folder: Tesis/Data/CV_CRGO300517_1/PWRCCD_CRGO300517_1/CHARGE_DISCHARGE (part 80)

File: CHARGE_#159.DTA
EXPLAIN
TAG	PWR800_CHARGE
TITLE	LABEL	PWR Cyclic Charge Discharge (Cell) - Charge Step	Test &Identifier
DATE	LABEL	22-6-2017	Date
TIME	LABEL	15:42:04	Time
NOTES	NOTES	3	&Notes...
	supercap test cell
	0.6mg
	6M KOH
PSTAT	PSTAT	IFC5000-01520	Potentiostat
CAPACITY	QUANT	1.00000E-003	Capacity (A-hr)
CELLTYPE	SELECTOR	1	&Cell Type
WORKINGCONNECTION	SELECTOR	0	&Working Lead
MAXCHARGETIME	VARIABLEANDUNITS	1.00000E+002	s	1.00000E+002	second(s)	Max &Charge Time
CHARGECURRENT	QUANT	6.00000E-003	&Charge Current (A)
VOLTAGEFINISH	TWOPARAM	F	1.00000E-003	3.60000E+003	&Voltage Finish	 I (A) < 	Max Time(s)
SAMPLETIME	QUANT	1.00000E-002	Sa&mple Period (s)
CHARGESTOPAT1	MULTIPARAM	4	1.00000E+000	Charge Stop At &1	Voltage > Limit	V
CHARGESTOPAT2	MULTIPARAM	0	0.00000E+000	Charge Stop At &2	None	N/A
AESBHCSELECTOR	TOGGLE	F	Save Both Half Cells
IRCOMP	TOGGLE	F	IR &Measure
EOC	QUANT	0	Open Circuit (V)
SEQUENCER	TOGGLE	TRUE	Run as Sequence
PSTATMODEL	IQUANT	53	Pstat Model
PSTATSECTION	LABEL	IFC5000-01520	Pstat Section
PSTATSERIALNO	LABEL	01520	Pstat Serial Number
CTRLMODE	IQUANT	0	Control Mode
ELECTROMETER	IQUANT	1	RE=0 or CS=1
IESTAB	IQUANT	0	I/E Stability
CASPEED	IQUANT	4	Control Amp Speed
CONVENTION	IQUANT	1	Current Convention
ICHRANGE	IQUANT	2	Ich Range
ICHRANGEMODE	TOGGLE	T	Ich Auto Range
ICHOFFSETENABLE	TOGGLE	F	Ich Offset Enable
ICHOFFSET	QUANT	0	Ich Offset (V)
ICHFILTER	IQUANT	1	Ich Filter
VCHRANGE	IQUANT	2	Vch Range
VCHRANGEMODE	TOGGLE	T	Vch Auto Range
VCHOFFSETENABLE	TOGGLE	F	Vch Offset Enable
VCHOFFSET	QUANT	0	Vch Offset (V)
VCHFILTER	IQUANT	1	Vch Filter
IERANGELOWERLIMIT	IQUANT	9	I/E Range Lower Limit
IERANGEMODE	TOGGLE	F	I/E AutoRange
IERANGE	IQUANT	10	I/E Range
ACHSELECT	IQUANT	1	Ach Select
ACHRANGE	IQUANT	2	Ach Range
ACHOFFSETENABLE	TOGGLE	F	Ach Offset Enable
ACHOFFSET	QUANT	0	Ach Offset (V)
ACHFILTER	IQUANT	1	Ach Filter
CABLEID	IQUANT	14	Cable ID
DCCALDATE	LABEL	20-10-2016	DC Calibration Date
ACCALDATE	LABEL	12/3/2015	AC Calibration Date
FRAMEWORKVERSION	QUANT	7.01	Framework Version
INSTRUMENTVERSION	LABEL	4.00	Instrument Version
CURVE	TABLE	67
	Pt	T	Vf	Im	Vu	Pwr	Sig	Ach	Temp	IERange	Over
	#	s	V	A	V	W	V	V	deg C	#	bits
	0	0.013333	5.99667E-001	5.99212E-003	0.00000E+000	3.59328E-003	3.59960E-001	-1.08298E+000	3.57710E+000	10	...........
	1	0.026667	6.08018E-001	5.99250E-003	0.00000E+000	3.64355E-003	3.59960E-001	-1.07340E+000	3.57710E+000	10	...........
	2	0.04	6.15764E-001	5.99523E-003	0.00000E+000	3.69165E-003	3.59960E-001	-1.07839E+000	3.57710E+000	10	...........
	3	0.053333	6.23097E-001	5.99505E-003	0.00000E+000	3.73550E-003	3.59960E-001	-1.08323E+000	3.57710E+000	10	...........
	4	0.066667	6.30108E-001	5.99439E-003	0.00000E+000	3.77711E-003	3.59960E-001	-1.07374E+000	3.57710E+000	10	...........
	5	0.08	6.36896E-001	5.99297E-003	0.00000E+000	3.81690E-003	3.59960E-001	-1.07824E+000	3.57710E+000	10	...........
	6	0.093333	6.43617E-001	5.99247E-003	0.00000E+000	3.85685E-003	3.59960E-001	-1.08308E+000	3.57710E+000	10	...........
	7	0.106667	6.50180E-001	5.99737E-003	0.00000E+000	3.89937E-003	3.59960E-001	-1.07356E+000	3.57710E+000	10	...........
	8	0.12	6.56738E-001	5.99212E-003	0.00000E+000	3.93526E-003	3.59960E-001	-1.07817E+000	3.57710E+000	10	...........
	9	0.133333	6.63136E-001	5.99462E-003	0.00000E+000	3.97524E-003	3.59960E-001	-1.08330E+000	3.57710E+000	10	...........
	10	0.146667	6.69519E-001	5.99211E-003	0.00000E+000	4.01183E-003	3.59960E-001	-1.07305E+000	3.57710E+000	10	...........
	11	0.16	6.75790E-001	5.99137E-003	0.00000E+000	4.04891E-003	3.59960E-001	-1.07740E+000	3.57710E+000	10	...........
	12	0.173333	6.82055E-001	5.99272E-003	0.00000E+000	4.08736E-003	3.59960E-001	-1.08278E+000	3.57710E+000	10	...........
	13	0.186667	6.88299E-001	5.99443E-003	0.00000E+000	4.12596E-003	3.59960E-001	-1.07336E+000	3.57710E+000	10	...........
	14	0.2	6.94526E-001	5.99288E-003	0.00000E+000	4.16221E-003	3.59960E-001	-1.07738E+000	3.57710E+000	10	...........
	15	0.213333	7.00691E-001	5.99360E-003	0.00000E+000	4.19966E-003	3.59960E-001	-1.08284E+000	3.57710E+000	10	...........
	16	0.226667	7.06834E-001	5.99220E-003	0.00000E+000	4.23549E-003	3.59960E-001	-1.07284E+000	3.57710E+000	10	...........
	17	0.24	7.13004E-001	5.99091E-003	0.00000E+000	4.27155E-003	3.59960E-001	-1.07724E+000	3.57710E+000	10	...........
	18	0.253333	7.19160E-001	5.99454E-003	0.00000E+000	4.31104E-003	3.59960E-001	-1.08301E+000	3.57710E+000	10	...........
	19	0.266667	7.25256E-001	5.99444E-003	0.00000E+000	4.34750E-003	3.59960E-001	-1.07311E+000	3.57710E+000	10	...........
	20	0.28	7.31312E-001	5.99211E-003	0.00000E+000	4.38210E-003	3.59960E-001	-1.07709E+000	3.57710E+000	10	...........
	21	0.293333	7.37379E-001	5.99284E-003	0.00000E+000	4.41900E-003	3.59960E-001	-1.08284E+000	3.57710E+000	10	...........
	22	0.306667	7.43523E-001	5.99572E-003	0.00000E+000	4.45796E-003	3.59960E-001	-1.07293E+000	3.57710E+000	10	...........
	23	0.32	7.49598E-001	5.99249E-003	0.00000E+000	4.49195E-003	3.59960E-001	-1.07717E+000	3.57710E+000	10	...........
	24	0.333333	7.55682E-001	5.99625E-003	0.00000E+000	4.53126E-003	3.59960E-001	-1.08312E+000	3.57710E+000	10	...........
	25	0.346667	7.61705E-001	5.99428E-003	0.00000E+000	4.56587E-003	3.59960E-001	-1.07292E+000	3.57710E+000	10	...........
	26	0.36	7.67776E-001	5.99836E-003	0.00000E+000	4.60539E-003	3.59960E-001	-1.07700E+000	3.57710E+000	10	...........
	27	0.373333	7.73838E-001	5.99434E-003	0.00000E+000	4.63865E-003	3.59960E-001	-1.08316E+000	3.57710E+000	10	...........
	28	0.386667	7.79886E-001	5.99534E-003	0.00000E+000	4.67568E-003	3.59960E-001	-1.07310E+000	3.57710E+000	10	...........
	29	0.4	7.85932E-001	5.99591E-003	0.00000E+000	4.71238E-003	3.59960E-001	-1.07702E+000	3.57710E+000	10	...........
	30	0.413333	7.91938E-001	5.99211E-003	0.00000E+000	4.74538E-003	3.59960E-001	-1.08315E+000	3.57710E+000	10	...........
	31	0.426667	7.97942E-001	5.98991E-003	0.00000E+000	4.77960E-003	3.59960E-001	-1.07287E+000	3.57710E+000	10	...........
	32	0.44	8.03894E-001	5.99852E-003	0.00000E+000	4.82217E-003	3.59960E-001	-1.07682E+000	3.57710E+000	10	...........
	33	0.453333	8.09881E-001	5.99795E-003	0.00000E+000	4.85763E-003	3.59960E-001	-1.08320E+000	3.57710E+000	10	...........
	34	0.466667	8.15928E-001	5.99788E-003	0.00000E+000	4.89384E-003	3.59960E-001	-1.07265E+000	3.57710E+000	10	...........
	35	0.48	8.21937E-001	5.99110E-003	0.00000E+000	4.92431E-003	3.59960E-001	-1.07628E+000	3.57710E+000	10	...........
	36	0.493333	8.27892E-001	5.99308E-003	0.00000E+000	4.96162E-003	3.59960E-001	-1.08279E+000	3.57710E+000	10	...........
	37	0.506667	8.33894E-001	5.99388E-003	0.00000E+000	4.99826E-003	3.59960E-001	-1.07249E+000	3.57710E+000	10	...........
	38	0.52	8.39823E-001	5.99398E-003	0.00000E+000	5.03388E-003	3.59960E-001	-1.07628E+000	3.57710E+000	10	...........
	39	0.533333	8.45797E-001	5.99504E-003	0.00000E+000	5.07059E-003	3.59960E-001	-1.08297E+000	3.57710E+000	10	...........
	40	0.546667	8.51737E-001	5.99354E-003	0.00000E+000	5.10492E-003	3.59960E-001	-1.07232E+000	3.57710E+000	10	...........
	41	0.56	8.57670E-001	5.99189E-003	0.00000E+000	5.13907E-003	3.59960E-001	-1.07603E+000	3.57710E+000	10	...........
	42	0.573333	8.63635E-001	5.98921E-003	0.00000E+000	5.17249E-003	3.59960E-001	-1.08294E+000	3.57710E+000	10	...........
	43	0.586667	8.69586E-001	5.99319E-003	0.00000E+000	5.21159E-003	3.59960E-001	-1.07259E+000	3.57710E+000	10	...........
	44	0.6	8.75499E-001	5.99252E-003	0.00000E+000	5.24645E-003	3.59960E-001	-1.07614E+000	3.57710E+000	10	...........
	45	0.613333	8.81394E-001	5.99043E-003	0.00000E+000	5.27993E-003	3.59960E-001	-1.08298E+000	3.57710E+000	10	...........
	46	0.626667	8.87337E-001	5.99373E-003	0.00000E+000	5.31846E-003	3.59960E-001	-1.07243E+000	3.57710E+000	10	...........
	47	0.64	8.93147E-001	5.99376E-003	0.00000E+000	5.35331E-003	3.59960E-001	-1.07602E+000	3.57710E+000	10	...........
	48	0.653333	8.99000E-001	5.99353E-003	0.00000E+000	5.38819E-003	3.59960E-001	-1.08333E+000	3.57710E+000	10	...........
	49	0.666667	9.04820E-001	5.98937E-003	0.00000E+000	5.41930E-003	3.59960E-001	-1.07256E+000	3.57710E+000	10	...........
	50	0.68	9.10675E-001	5.99273E-003	0.00000E+000	5.45743E-003	3.59960E-001	-1.07576E+000	3.57710E+000	10	...........
	51	0.693333	9.16468E-001	5.99310E-003	0.00000E+000	5.49249E-003	3.59960E-001	-1.08300E+000	3.57710E+000	10	...........
	52	0.706667	9.22344E-001	5.98887E-003	0.00000E+000	5.52380E-003	3.59960E-001	-1.07261E+000	3.57710E+000	10	...........
	53	0.72	9.28094E-001	5.99429E-003	0.00000E+000	5.56326E-003	3.59960E-001	-1.07607E+000	3.57710E+000	10	...........
	54	0.733333	9.33830E-001	5.99073E-003	0.00000E+000	5.59432E-003	3.59960E-001	-1.08352E+000	3.57710E+000	10	...........
	55	0.746667	9.39507E-001	5.99427E-003	0.00000E+000	5.63166E-003	3.59960E-001	-1.07264E+000	3.57710E+000	10	...........
	56	0.76	9.45174E-001	5.98990E-003	0.00000E+000	5.66150E-003	3.59960E-001	-1.07573E+000	3.57755E+000	10	...........
	57	0.773333	9.50867E-001	5.99699E-003	0.00000E+000	5.70234E-003	3.59960E-001	-1.08327E+000	3.57830E+000	10	...........
	58	0.786667	9.56497E-001	5.99535E-003	0.00000E+000	5.73453E-003	3.59960E-001	-1.07253E+000	3.57830E+000	10	...........
	59	0.8	9.62032E-001	5.99391E-003	0.00000E+000	5.76633E-003	3.59960E-001	-1.07548E+000	3.57830E+000	10	...........
	60	0.813333	9.67613E-001	5.99302E-003	0.00000E+000	5.79893E-003	3.59960E-001	-1.08293E+000	3.57830E+000	10	...........
	61	0.826667	9.73179E-001	5.99406E-003	0.00000E+000	5.83330E-003	3.59960E-001	-1.07220E+000	3.57830E+000	10	...........
	62	0.84	9.78664E-001	5.99443E-003	0.00000E+000	5.86653E-003	3.59960E-001	-1.07527E+000	3.57830E+000	10	...........
	63	0.853333	9.84147E-001	5.99634E-003	0.00000E+000	5.90128E-003	3.59960E-001	-1.08315E+000	3.57830E+000	10	...........
	64	0.866667	9.89555E-001	5.99414E-003	0.00000E+000	5.93153E-003	3.59960E-001	-1.07237E+000	3.57830E+000	10	...........
	65	0.88	9.94903E-001	5.99619E-003	0.00000E+000	5.96563E-003	3.59960E-001	-1.07509E+000	3.57830E+000	10	...........
	66	0.888333	9.99276E-001	5.99413E-003	0.00000E+000	5.98978E-003	3.59960E-001	-1.08161E+000	3.57830E+000	10	...........
STARTTIMEOFFSET	QUANT	301.5301	Start Time Offset (s)

File: CHARGE_#160.DTA
EXPLAIN
TAG	PWR800_CHARGE
TITLE	LABEL	PWR Cyclic Charge Discharge (Cell) - Charge Step	Test &Identifier
DATE	LABEL	22-6-2017	Date
TIME	LABEL	15:42:07	Time
NOTES	NOTES	3	&Notes...
	supercap test cell
	0.6mg
	6M KOH
PSTAT	PSTAT	IFC5000-01520	Potentiostat
CAPACITY	QUANT	1.00000E-003	Capacity (A-hr)
CELLTYPE	SELECTOR	1	&Cell Type
WORKINGCONNECTION	SELECTOR	0	&Working Lead
MAXCHARGETIME	VARIABLEANDUNITS	1.00000E+002	s	1.00000E+002	second(s)	Max &Charge Time
CHARGECURRENT	QUANT	6.00000E-003	&Charge Current (A)
VOLTAGEFINISH	TWOPARAM	F	1.00000E-003	3.60000E+003	&Voltage Finish	 I (A) < 	Max Time(s)
SAMPLETIME	QUANT	1.00000E-002	Sa&mple Period (s)
CHARGESTOPAT1	MULTIPARAM	4	1.00000E+000	Charge Stop At &1	Voltage > Limit	V
CHARGESTOPAT2	MULTIPARAM	0	0.00000E+000	Charge Stop At &2	None	N/A
AESBHCSELECTOR	TOGGLE	F	Save Both Half Cells
IRCOMP	TOGGLE	F	IR &Measure
EOC	QUANT	0	Open Circuit (V)
SEQUENCER	TOGGLE	TRUE	Run as Sequence
PSTATMODEL	IQUANT	53	Pstat Model
PSTATSECTION	LABEL	IFC5000-01520	Pstat Section
PSTATSERIALNO	LABEL	01520	Pstat Serial Number
CTRLMODE	IQUANT	0	Control Mode
ELECTROMETER	IQUANT	1	RE=0 or CS=1
IESTAB	IQUANT	0	I/E Stability
CASPEED	IQUANT	4	Control Amp Speed
CONVENTION	IQUANT	1	Current Convention
ICHRANGE	IQUANT	2	Ich Range
ICHRANGEMODE	TOGGLE	T	Ich Auto Range
ICHOFFSETENABLE	TOGGLE	F	Ich Offset Enable
ICHOFFSET	QUANT	0	Ich Offset (V)
ICHFILTER	IQUANT	1	Ich Filter
VCHRANGE	IQUANT	2	Vch Range
VCHRANGEMODE	TOGGLE	T	Vch Auto Range
VCHOFFSETENABLE	TOGGLE	F	Vch Offset Enable
VCHOFFSET	QUANT	0	Vch Offset (V)
VCHFILTER	IQUANT	1	Vch Filter
IERANGELOWERLIMIT	IQUANT	9	I/E Range Lower Limit
IERANGEMODE	TOGGLE	F	I/E AutoRange
IERANGE	IQUANT	10	I/E Range
ACHSELECT	IQUANT	1	Ach Select
ACHRANGE	IQUANT	2	Ach Range
ACHOFFSETENABLE	TOGGLE	F	Ach Offset Enable
ACHOFFSET	QUANT	0	Ach Offset (V)
ACHFILTER	IQUANT	1	Ach Filter
CABLEID	IQUANT	14	Cable ID
DCCALDATE	LABEL	20-10-2016	DC Calibration Date
ACCALDATE	LABEL	12/3/2015	AC Calibration Date
FRAMEWORKVERSION	QUANT	7.01	Framework Version
INSTRUMENTVERSION	LABEL	4.00	Instrument Version
CURVE	TABLE	67
	Pt	T	Vf	Im	Vu	Pwr	Sig	Ach	Temp	IERange	Over
	#	s	V	A	V	W	V	V	deg C	#	bits
	0	0.013333	5.99546E-001	5.99084E-003	0.00000E+000	3.59178E-003	3.59960E-001	-1.08456E+000	3.57740E+000	10	...........
	1	0.026667	6.07993E-001	5.99439E-003	0.00000E+000	3.64454E-003	3.59960E-001	-1.07451E+000	3.57740E+000	10	...........
	2	0.04	6.15741E-001	5.99322E-003	0.00000E+000	3.69027E-003	3.59960E-001	-1.07860E+000	3.57740E+000	10	...........
	3	0.053333	6.23062E-001	5.99040E-003	0.00000E+000	3.73239E-003	3.59960E-001	-1.08458E+000	3.57740E+000	10	...........
	4	0.066667	6.30041E-001	5.99352E-003	0.00000E+000	3.77616E-003	3.59960E-001	-1.07478E+000	3.57740E+000	10	...........
	5	0.08	6.36892E-001	5.99071E-003	0.00000E+000	3.81544E-003	3.59960E-001	-1.07866E+000	3.57740E+000	10	...........
	6	0.093333	6.43611E-001	5.99265E-003	0.00000E+000	3.85694E-003	3.59960E-001	-1.08492E+000	3.57740E+000	10	...........
	7	0.106667	6.50188E-001	5.99469E-003	0.00000E+000	3.89768E-003	3.59960E-001	-1.07467E+000	3.57740E+000	10	...........
	8	0.12	6.56717E-001	5.99077E-003	0.00000E+000	3.93424E-003	3.59960E-001	-1.07879E+000	3.57740E+000	10	...........
	9	0.133333	6.63153E-001	5.99681E-003	0.00000E+000	3.97680E-003	3.59960E-001	-1.08481E+000	3.57740E+000	10	...........
	10	0.146667	6.69521E-001	5.99293E-003	0.00000E+000	4.01239E-003	3.59960E-001	-1.07456E+000	3.57740E+000	10	...........
	11	0.16	6.75842E-001	5.99219E-003	0.00000E+000	4.04977E-003	3.59960E-001	-1.07829E+000	3.57740E+000	10	...........
	12	0.173333	6.82130E-001	5.99146E-003	0.00000E+000	4.08695E-003	3.59960E-001	-1.08461E+000	3.57740E+000	10	...........
	13	0.186667	6.88370E-001	5.99393E-003	0.00000E+000	4.12604E-003	3.59960E-001	-1.07408E+000	3.57740E+000	10	...........
	14	0.2	6.94597E-001	5.99822E-003	0.00000E+000	4.16635E-003	3.59960E-001	-1.07791E+000	3.57740E+000	10	...........
	15	0.213333	7.00758E-001	5.99312E-003	0.00000E+000	4.19973E-003	3.59960E-001	-1.08447E+000	3.57740E+000	10	...........
	16	0.226667	7.06929E-001	5.99206E-003	0.00000E+000	4.23596E-003	3.59960E-001	-1.07407E+000	3.57732E+000	10	...........
	17	0.24	7.13057E-001	5.99350E-003	0.00000E+000	4.27370E-003	3.59960E-001	-1.07805E+000	3.57730E+000	10	...........
	18	0.253333	7.19229E-001	5.99710E-003	0.00000E+000	4.31329E-003	3.59960E-001	-1.08456E+000	3.57730E+000	10	...........
	19	0.266667	7.25336E-001	5.99469E-003	0.00000E+000	4.34816E-003	3.59960E-001	-1.07436E+000	3.57730E+000	10	...........
	20	0.28	7.31418E-001	5.99205E-003	0.00000E+000	4.38270E-003	3.59960E-001	-1.07795E+000	3.57730E+000	10	...........
	21	0.293333	7.37524E-001	5.99505E-003	0.00000E+000	4.42150E-003	3.59960E-001	-1.08448E+000	3.57730E+000	10	...........
	22	0.306667	7.43617E-001	5.99402E-003	0.00000E+000	4.45725E-003	3.59960E-001	-1.07426E+000	3.57730E+000	10	...........
	23	0.32	7.49691E-001	5.99451E-003	0.00000E+000	4.49403E-003	3.59960E-001	-1.07777E+000	3.57730E+000	10	...........
	24	0.333333	7.55777E-001	5.99298E-003	0.00000E+000	4.52936E-003	3.59960E-001	-1.08441E+000	3.57730E+000	10	...........
	25	0.346667	7.61850E-001	5.99699E-003	0.00000E+000	4.56881E-003	3.59960E-001	-1.07410E+000	3.57730E+000	10	...........
	26	0.36	7.67884E-001	5.99282E-003	0.00000E+000	4.60179E-003	3.59960E-001	-1.07757E+000	3.57730E+000	10	...........
	27	0.373333	7.73969E-001	5.99416E-003	0.00000E+000	4.63929E-003	3.59960E-001	-1.08451E+000	3.57730E+000	10	...........
	28	0.386667	7.79998E-001	5.99043E-003	0.00000E+000	4.67252E-003	3.59960E-001	-1.07431E+000	3.57730E+000	10	...........
	29	0.4	7.86040E-001	5.99287E-003	0.00000E+000	4.71064E-003	3.59960E-001	-1.07782E+000	3.57730E+000	10	...........
	30	0.413333	7.92047E-001	5.99348E-003	0.00000E+000	4.74712E-003	3.59960E-001	-1.08459E+000	3.57730E+000	10	...........
	31	0.426667	7.98047E-001	5.99149E-003	0.00000E+000	4.78149E-003	3.59960E-001	-1.07434E+000	3.57730E+000	10	...........
	32	0.44	8.04059E-001	5.99378E-003	0.00000E+000	4.81935E-003	3.59960E-001	-1.07778E+000	3.57730E+000	10	...........
	33	0.453333	8.10048E-001	5.99238E-003	0.00000E+000	4.85412E-003	3.59960E-001	-1.08476E+000	3.57730E+000	10	...........
	34	0.466667	8.16081E-001	5.99188E-003	0.00000E+000	4.88986E-003	3.59960E-001	-1.07407E+000	3.57730E+000	10	...........
	35	0.48	8.22097E-001	5.99589E-003	0.00000E+000	4.92920E-003	3.59960E-001	-1.07745E+000	3.57730E+000	10	...........
	36	0.493333	8.28125E-001	5.99521E-003	0.00000E+000	4.96479E-003	3.59960E-001	-1.08422E+000	3.57730E+000	10	...........
	37	0.506667	8.34110E-001	5.99566E-003	0.00000E+000	5.00104E-003	3.59960E-001	-1.07362E+000	3.57730E+000	10	...........
	38	0.52	8.40092E-001	5.99492E-003	0.00000E+000	5.03628E-003	3.59960E-001	-1.07689E+000	3.57730E+000	10	...........
	39	0.533333	8.46072E-001	5.99231E-003	0.00000E+000	5.06993E-003	3.59960E-001	-1.08434E+000	3.57730E+000	10	...........
	40	0.546667	8.52043E-001	5.99389E-003	0.00000E+000	5.10705E-003	3.59960E-001	-1.07363E+000	3.57730E+000	10	...........
	41	0.56	8.57961E-001	5.99402E-003	0.00000E+000	5.14264E-003	3.59960E-001	-1.07695E+000	3.57730E+000	10	...........
	42	0.573333	8.63890E-001	5.98913E-003	0.00000E+000	5.17395E-003	3.59960E-001	-1.08426E+000	3.57730E+000	10	...........
	43	0.586667	8.69827E-001	5.99632E-003	0.00000E+000	5.21576E-003	3.59960E-001	-1.07367E+000	3.57730E+000	10	...........
	44	0.6	8.75773E-001	5.99546E-003	0.00000E+000	5.25066E-003	3.59960E-001	-1.07692E+000	3.57730E+000	10	...........
	45	0.613333	8.81663E-001	5.99281E-003	0.00000E+000	5.28364E-003	3.59960E-001	-1.08432E+000	3.57730E+000	10	...........
	46	0.626667	8.87569E-001	5.99468E-003	0.00000E+000	5.32069E-003	3.59960E-001	-1.07353E+000	3.57730E+000	10	...........
	47	0.64	8.93435E-001	5.99219E-003	0.00000E+000	5.35363E-003	3.59960E-001	-1.07688E+000	3.57730E+000	10	...........
	48	0.653333	8.99292E-001	5.99653E-003	0.00000E+000	5.39263E-003	3.59960E-001	-1.08427E+000	3.57730E+000	10	...........
	49	0.666667	9.05081E-001	5.99737E-003	0.00000E+000	5.42811E-003	3.59960E-001	-1.07379E+000	3.57730E+000	10	...........
	50	0.68	9.10946E-001	5.98925E-003	0.00000E+000	5.45589E-003	3.59960E-001	-1.07668E+000	3.57730E+000	10	...........
	51	0.693333	9.16703E-001	5.99684E-003	0.00000E+000	5.49732E-003	3.59960E-001	-1.08425E+000	3.57730E+000	10	...........
	52	0.706667	9.22603E-001	5.99237E-003	0.00000E+000	5.52858E-003	3.59960E-001	-1.07376E+000	3.57730E+000	10	...........
	53	0.72	9.28365E-001	5.99596E-003	0.00000E+000	5.56644E-003	3.59960E-001	-1.07705E+000	3.57730E+000	10	...........
	54	0.733333	9.34075E-001	5.98964E-003	0.00000E+000	5.59477E-003	3.59960E-001	-1.08458E+000	3.57730E+000	10	...........
	55	0.746667	9.39794E-001	5.99632E-003	0.00000E+000	5.63530E-003	3.59960E-001	-1.07390E+000	3.57730E+000	10	...........
	56	0.76	9.45485E-001	5.99621E-003	0.00000E+000	5.66933E-003	3.59960E-001	-1.07663E+000	3.57730E+000	10	...........
	57	0.773333	9.51147E-001	5.99244E-003	0.00000E+000	5.69969E-003	3.59960E-001	-1.08465E+000	3.57730E+000	10	...........
	58	0.786667	9.56758E-001	5.99675E-003	0.00000E+000	5.73744E-003	3.59960E-001	-1.07375E+000	3.57730E+000	10	...........
	59	0.8	9.62364E-001	5.99766E-003	0.00000E+000	5.77193E-003	3.59960E-001	-1.07678E+000	3.57730E+000	10	...........
	60	0.813333	9.67922E-001	5.99424E-003	0.00000E+000	5.80196E-003	3.59960E-001	-1.08423E+000	3.57730E+000	10	...........
	61	0.826667	9.73443E-001	5.99343E-003	0.00000E+000	5.83426E-003	3.59960E-001	-1.07340E+000	3.57730E+000	10	...........
	62	0.84	9.78929E-001	5.99040E-003	0.00000E+000	5.86418E-003	3.59960E-001	-1.07636E+000	3.57730E+000	10	...........
	63	0.853333	9.84423E-001	5.99418E-003	0.00000E+000	5.90081E-003	3.59960E-001	-1.08430E+000	3.57730E+000	10	...........
	64	0.866667	9.89831E-001	5.98916E-003	0.00000E+000	5.92826E-003	3.59960E-001	-1.07363E+000	3.57730E+000	10	...........
	65	0.88	9.95221E-001	5.99022E-003	0.00000E+000	5.96160E-003	3.59960E-001	-1.07634E+000	3.57730E+000	10	...........
	66	0.886667	9.99274E-001	5.99882E-003	0.00000E+000	5.99446E-003	3.59960E-001	-1.08165E+000	3.57730E+000	10	...........
STARTTIMEOFFSET	QUANT	303.2951	Start Time Offset (s)