Folder: Tesis/Data/CV_CRGO300517_1/PWRCCD_CRGO300517_1/CHARGE_DISCHARGE (part 45)

File: CHARGE_#89.DTA
EXPLAIN
TAG	PWR800_CHARGE
TITLE	LABEL	PWR Cyclic Charge Discharge (Cell) - Charge Step	Test &Identifier
DATE	LABEL	22-6-2017	Date
TIME	LABEL	15:39:01	Time
NOTES	NOTES	3	&Notes...
	supercap test cell
	0.6mg
	6M KOH
PSTAT	PSTAT	IFC5000-01520	Potentiostat
CAPACITY	QUANT	1.00000E-003	Capacity (A-hr)
CELLTYPE	SELECTOR	1	&Cell Type
WORKINGCONNECTION	SELECTOR	0	&Working Lead
MAXCHARGETIME	VARIABLEANDUNITS	1.00000E+002	s	1.00000E+002	second(s)	Max &Charge Time
CHARGECURRENT	QUANT	6.00000E-003	&Charge Current (A)
VOLTAGEFINISH	TWOPARAM	F	1.00000E-003	3.60000E+003	&Voltage Finish	 I (A) < 	Max Time(s)
SAMPLETIME	QUANT	1.00000E-002	Sa&mple Period (s)
CHARGESTOPAT1	MULTIPARAM	4	1.00000E+000	Charge Stop At &1	Voltage > Limit	V
CHARGESTOPAT2	MULTIPARAM	0	0.00000E+000	Charge Stop At &2	None	N/A
AESBHCSELECTOR	TOGGLE	F	Save Both Half Cells
IRCOMP	TOGGLE	F	IR &Measure
EOC	QUANT	0	Open Circuit (V)
SEQUENCER	TOGGLE	TRUE	Run as Sequence
PSTATMODEL	IQUANT	53	Pstat Model
PSTATSECTION	LABEL	IFC5000-01520	Pstat Section
PSTATSERIALNO	LABEL	01520	Pstat Serial Number
CTRLMODE	IQUANT	0	Control Mode
ELECTROMETER	IQUANT	1	RE=0 or CS=1
IESTAB	IQUANT	0	I/E Stability
CASPEED	IQUANT	4	Control Amp Speed
CONVENTION	IQUANT	1	Current Convention
ICHRANGE	IQUANT	2	Ich Range
ICHRANGEMODE	TOGGLE	T	Ich Auto Range
ICHOFFSETENABLE	TOGGLE	F	Ich Offset Enable
ICHOFFSET	QUANT	0	Ich Offset (V)
ICHFILTER	IQUANT	1	Ich Filter
VCHRANGE	IQUANT	2	Vch Range
VCHRANGEMODE	TOGGLE	T	Vch Auto Range
VCHOFFSETENABLE	TOGGLE	F	Vch Offset Enable
VCHOFFSET	QUANT	0	Vch Offset (V)
VCHFILTER	IQUANT	1	Vch Filter
IERANGELOWERLIMIT	IQUANT	9	I/E Range Lower Limit
IERANGEMODE	TOGGLE	F	I/E AutoRange
IERANGE	IQUANT	10	I/E Range
ACHSELECT	IQUANT	1	Ach Select
ACHRANGE	IQUANT	2	Ach Range
ACHOFFSETENABLE	TOGGLE	F	Ach Offset Enable
ACHOFFSET	QUANT	0	Ach Offset (V)
ACHFILTER	IQUANT	1	Ach Filter
CABLEID	IQUANT	14	Cable ID
DCCALDATE	LABEL	20-10-2016	DC Calibration Date
ACCALDATE	LABEL	12/3/2015	AC Calibration Date
FRAMEWORKVERSION	QUANT	7.01	Framework Version
INSTRUMENTVERSION	LABEL	4.00	Instrument Version
CURVE	TABLE	71
	Pt	T	Vf	Im	Vu	Pwr	Sig	Ach	Temp	IERange	Over
	#	s	V	A	V	W	V	V	deg C	#	bits
	0	0.013333	5.86108E-001	5.99576E-003	0.00000E+000	3.51417E-003	3.59960E-001	-1.05600E+000	3.57810E+000	10	...........
	1	0.026667	5.94340E-001	5.99374E-003	0.00000E+000	3.56232E-003	3.59960E-001	-1.06024E+000	3.57810E+000	10	...........
	2	0.04	6.01882E-001	5.99658E-003	0.00000E+000	3.60923E-003	3.59960E-001	-1.06570E+000	3.57810E+000	10	...........
	3	0.053333	6.09006E-001	5.99430E-003	0.00000E+000	3.65056E-003	3.59960E-001	-1.05525E+000	3.57810E+000	10	...........
	4	0.066667	6.15941E-001	5.99457E-003	0.00000E+000	3.69230E-003	3.59960E-001	-1.06024E+000	3.57810E+000	10	...........
	5	0.08	6.22611E-001	5.99209E-003	0.00000E+000	3.73074E-003	3.59960E-001	-1.06563E+000	3.57810E+000	10	...........
	6	0.093333	6.29149E-001	5.99272E-003	0.00000E+000	3.77031E-003	3.59960E-001	-1.05550E+000	3.57810E+000	10	...........
	7	0.106667	6.35561E-001	5.99325E-003	0.00000E+000	3.80907E-003	3.59960E-001	-1.06012E+000	3.57810E+000	10	...........
	8	0.12	6.41920E-001	5.99155E-003	0.00000E+000	3.84610E-003	3.59960E-001	-1.06532E+000	3.57810E+000	10	...........
	9	0.133333	6.48175E-001	5.99471E-003	0.00000E+000	3.88562E-003	3.59960E-001	-1.05535E+000	3.57810E+000	10	...........
	10	0.146667	6.54453E-001	5.99740E-003	0.00000E+000	3.92501E-003	3.59960E-001	-1.06039E+000	3.57810E+000	10	...........
	11	0.16	6.60565E-001	5.99216E-003	0.00000E+000	3.95821E-003	3.59960E-001	-1.06539E+000	3.57810E+000	10	...........
	12	0.173333	6.66716E-001	5.99498E-003	0.00000E+000	3.99695E-003	3.59960E-001	-1.05514E+000	3.57810E+000	10	...........
	13	0.186667	6.72832E-001	5.99228E-003	0.00000E+000	4.03180E-003	3.59960E-001	-1.06018E+000	3.57810E+000	10	...........
	14	0.2	6.78905E-001	5.99682E-003	0.00000E+000	4.07127E-003	3.59960E-001	-1.06514E+000	3.57810E+000	10	...........
	15	0.213333	6.84894E-001	5.99373E-003	0.00000E+000	4.10507E-003	3.59960E-001	-1.05525E+000	3.57810E+000	10	...........
	16	0.226667	6.90895E-001	5.99520E-003	0.00000E+000	4.14205E-003	3.59960E-001	-1.06053E+000	3.57810E+000	10	...........
	17	0.24	6.96891E-001	5.99128E-003	0.00000E+000	4.17527E-003	3.59960E-001	-1.06513E+000	3.57810E+000	10	...........
	18	0.253333	7.02859E-001	5.99302E-003	0.00000E+000	4.21225E-003	3.59960E-001	-1.05503E+000	3.57810E+000	10	...........
	19	0.266667	7.08813E-001	5.99523E-003	0.00000E+000	4.24949E-003	3.59960E-001	-1.06038E+000	3.57810E+000	10	...........
	20	0.28	7.14729E-001	5.99165E-003	0.00000E+000	4.28241E-003	3.59960E-001	-1.06509E+000	3.57810E+000	10	...........
	21	0.293333	7.20733E-001	5.99384E-003	0.00000E+000	4.31996E-003	3.59960E-001	-1.05520E+000	3.57810E+000	10	...........
	22	0.306667	7.26630E-001	5.99211E-003	0.00000E+000	4.35405E-003	3.59960E-001	-1.06034E+000	3.57810E+000	10	...........
	23	0.32	7.32516E-001	5.99064E-003	0.00000E+000	4.38824E-003	3.59960E-001	-1.06476E+000	3.57810E+000	10	...........
	24	0.333333	7.38410E-001	6.00055E-003	0.00000E+000	4.43086E-003	3.59960E-001	-1.05489E+000	3.57810E+000	10	...........
	25	0.346667	7.44336E-001	5.99408E-003	0.00000E+000	4.46161E-003	3.59960E-001	-1.06037E+000	3.57810E+000	10	...........
	26	0.36	7.50204E-001	5.99410E-003	0.00000E+000	4.49680E-003	3.59960E-001	-1.06440E+000	3.57810E+000	10	...........
	27	0.373333	7.56108E-001	5.99309E-003	0.00000E+000	4.53142E-003	3.59960E-001	-1.05462E+000	3.57810E+000	10	...........
	28	0.386667	7.61967E-001	5.99205E-003	0.00000E+000	4.56575E-003	3.59960E-001	-1.06010E+000	3.57810E+000	10	...........
	29	0.4	7.67821E-001	5.99427E-003	0.00000E+000	4.60253E-003	3.59960E-001	-1.06400E+000	3.57810E+000	10	...........
	30	0.413333	7.73710E-001	5.99135E-003	0.00000E+000	4.63557E-003	3.59960E-001	-1.05451E+000	3.57810E+000	10	...........
	31	0.426667	7.79631E-001	6.00000E-003	0.00000E+000	4.67779E-003	3.59960E-001	-1.06044E+000	3.57810E+000	10	...........
	32	0.44	7.85478E-001	5.99564E-003	0.00000E+000	4.70944E-003	3.59960E-001	-1.06416E+000	3.57810E+000	10	...........
	33	0.453333	7.91368E-001	5.99260E-003	0.00000E+000	4.74235E-003	3.59960E-001	-1.05456E+000	3.57810E+000	10	...........
	34	0.466667	7.97247E-001	5.99079E-003	0.00000E+000	4.77613E-003	3.59960E-001	-1.06036E+000	3.57810E+000	10	...........
	35	0.48	8.03075E-001	5.99516E-003	0.00000E+000	4.81456E-003	3.59960E-001	-1.06414E+000	3.57810E+000	10	...........
	36	0.493333	8.08945E-001	5.99827E-003	0.00000E+000	4.85226E-003	3.59960E-001	-1.05452E+000	3.57810E+000	10	...........
	37	0.506667	8.14816E-001	5.99374E-003	0.00000E+000	4.88379E-003	3.59960E-001	-1.06030E+000	3.57810E+000	10	...........
	38	0.52	8.20691E-001	5.99318E-003	0.00000E+000	4.91855E-003	3.59960E-001	-1.06374E+000	3.57810E+000	10	...........
	39	0.533333	8.26487E-001	5.99511E-003	0.00000E+000	4.95488E-003	3.59960E-001	-1.05450E+000	3.57810E+000	10	...........
	40	0.546667	8.32343E-001	5.99648E-003	0.00000E+000	4.99113E-003	3.59960E-001	-1.06057E+000	3.57810E+000	10	...........
	41	0.56	8.38162E-001	5.99541E-003	0.00000E+000	5.02512E-003	3.59960E-001	-1.06403E+000	3.57810E+000	10	...........
	42	0.573333	8.44024E-001	5.99519E-003	0.00000E+000	5.06008E-003	3.59960E-001	-1.05439E+000	3.57810E+000	10	...........
	43	0.586667	8.49866E-001	5.99494E-003	0.00000E+000	5.09489E-003	3.59960E-001	-1.06062E+000	3.57810E+000	10	...........
	44	0.6	8.55633E-001	5.99192E-003	0.00000E+000	5.12689E-003	3.59960E-001	-1.06352E+000	3.57810E+000	10	...........
	45	0.613333	8.61494E-001	5.99551E-003	0.00000E+000	5.16510E-003	3.59960E-001	-1.05446E+000	3.57810E+000	10	...........
	46	0.626667	8.67289E-001	5.99350E-003	0.00000E+000	5.19809E-003	3.59960E-001	-1.06098E+000	3.57810E+000	10	...........
	47	0.64	8.73126E-001	5.99474E-003	0.00000E+000	5.23416E-003	3.59960E-001	-1.06339E+000	3.57810E+000	10	...........
	48	0.653333	8.78912E-001	5.99741E-003	0.00000E+000	5.27119E-003	3.59960E-001	-1.05431E+000	3.57810E+000	10	...........
	49	0.666667	8.84684E-001	5.99294E-003	0.00000E+000	5.30185E-003	3.59960E-001	-1.06036E+000	3.57810E+000	10	...........
	50	0.68	8.90446E-001	5.98986E-003	0.00000E+000	5.33365E-003	3.59960E-001	-1.06304E+000	3.57810E+000	10	...........
	51	0.693333	8.96186E-001	5.99453E-003	0.00000E+000	5.37221E-003	3.59960E-001	-1.05406E+000	3.57810E+000	10	...........
	52	0.706667	9.01928E-001	5.99547E-003	0.00000E+000	5.40748E-003	3.59960E-001	-1.06050E+000	3.57810E+000	10	...........
	53	0.72	9.07655E-001	5.99365E-003	0.00000E+000	5.44016E-003	3.59960E-001	-1.06274E+000	3.57810E+000	10	...........
	54	0.733333	9.13377E-001	5.99643E-003	0.00000E+000	5.47700E-003	3.59960E-001	-1.05373E+000	3.57825E+000	10	...........
	55	0.746667	9.19067E-001	5.99386E-003	0.00000E+000	5.50876E-003	3.59960E-001	-1.06059E+000	3.57840E+000	10	...........
	56	0.76	9.24766E-001	5.99348E-003	0.00000E+000	5.54257E-003	3.59960E-001	-1.06294E+000	3.57840E+000	10	...........
	57	0.773333	9.30434E-001	5.99350E-003	0.00000E+000	5.57656E-003	3.59960E-001	-1.05369E+000	3.57840E+000	10	...........
	58	0.786667	9.36048E-001	5.99248E-003	0.00000E+000	5.60925E-003	3.59960E-001	-1.06051E+000	3.57840E+000	10	...........
	59	0.8	9.41681E-001	5.99574E-003	0.00000E+000	5.64608E-003	3.59960E-001	-1.06265E+000	3.57840E+000	10	...........
	60	0.813333	9.47283E-001	5.99220E-003	0.00000E+000	5.67631E-003	3.59960E-001	-1.05371E+000	3.57840E+000	10	...........
	61	0.826667	9.52849E-001	5.99696E-003	0.00000E+000	5.71420E-003	3.59960E-001	-1.06065E+000	3.57840E+000	10	...........
	62	0.84	9.58349E-001	5.99225E-003	0.00000E+000	5.74266E-003	3.59960E-001	-1.06246E+000	3.57840E+000	10	...........
	63	0.853333	9.63898E-001	5.99169E-003	0.00000E+000	5.77538E-003	3.59960E-001	-1.05354E+000	3.57840E+000	10	...........
	64	0.866667	9.69375E-001	5.99276E-003	0.00000E+000	5.80923E-003	3.59960E-001	-1.06072E+000	3.57840E+000	10	...........
	65	0.88	9.74865E-001	5.99832E-003	0.00000E+000	5.84755E-003	3.59960E-001	-1.06262E+000	3.57840E+000	10	...........
	66	0.893333	9.80295E-001	5.99464E-003	0.00000E+000	5.87651E-003	3.59960E-001	-1.05382E+000	3.57840E+000	10	...........
	67	0.906667	9.85669E-001	5.99182E-003	0.00000E+000	5.90595E-003	3.59960E-001	-1.06095E+000	3.57840E+000	10	...........
	68	0.92	9.91058E-001	5.99014E-003	0.00000E+000	5.93658E-003	3.59960E-001	-1.06235E+000	3.57840E+000	10	...........
	69	0.933333	9.96379E-001	5.99098E-003	0.00000E+000	5.96928E-003	3.59960E-001	-1.05356E+000	3.57840E+000	10	...........
	70	0.936667	9.99729E-001	5.98916E-003	0.00000E+000	5.98754E-003	3.59960E-001	-1.07027E+000	3.57840E+000	10	...........
STARTTIMEOFFSET	QUANT	174.8117	Start Time Offset (s)

File: CHARGE_#90.DTA
EXPLAIN
TAG	PWR800_CHARGE
TITLE	LABEL	PWR Cyclic Charge Discharge (Cell) - Charge Step	Test &Identifier
DATE	LABEL	22-6-2017	Date
TIME	LABEL	15:39:04	Time
NOTES	NOTES	3	&Notes...
	supercap test cell
	0.6mg
	6M KOH
PSTAT	PSTAT	IFC5000-01520	Potentiostat
CAPACITY	QUANT	1.00000E-003	Capacity (A-hr)
CELLTYPE	SELECTOR	1	&Cell Type
WORKINGCONNECTION	SELECTOR	0	&Working Lead
MAXCHARGETIME	VARIABLEANDUNITS	1.00000E+002	s	1.00000E+002	second(s)	Max &Charge Time
CHARGECURRENT	QUANT	6.00000E-003	&Charge Current (A)
VOLTAGEFINISH	TWOPARAM	F	1.00000E-003	3.60000E+003	&Voltage Finish	 I (A) < 	Max Time(s)
SAMPLETIME	QUANT	1.00000E-002	Sa&mple Period (s)
CHARGESTOPAT1	MULTIPARAM	4	1.00000E+000	Charge Stop At &1	Voltage > Limit	V
CHARGESTOPAT2	MULTIPARAM	0	0.00000E+000	Charge Stop At &2	None	N/A
AESBHCSELECTOR	TOGGLE	F	Save Both Half Cells
IRCOMP	TOGGLE	F	IR &Measure
EOC	QUANT	0	Open Circuit (V)
SEQUENCER	TOGGLE	TRUE	Run as Sequence
PSTATMODEL	IQUANT	53	Pstat Model
PSTATSECTION	LABEL	IFC5000-01520	Pstat Section
PSTATSERIALNO	LABEL	01520	Pstat Serial Number
CTRLMODE	IQUANT	0	Control Mode
ELECTROMETER	IQUANT	1	RE=0 or CS=1
IESTAB	IQUANT	0	I/E Stability
CASPEED	IQUANT	4	Control Amp Speed
CONVENTION	IQUANT	1	Current Convention
ICHRANGE	IQUANT	2	Ich Range
ICHRANGEMODE	TOGGLE	T	Ich Auto Range
ICHOFFSETENABLE	TOGGLE	F	Ich Offset Enable
ICHOFFSET	QUANT	0	Ich Offset (V)
ICHFILTER	IQUANT	1	Ich Filter
VCHRANGE	IQUANT	2	Vch Range
VCHRANGEMODE	TOGGLE	T	Vch Auto Range
VCHOFFSETENABLE	TOGGLE	F	Vch Offset Enable
VCHOFFSET	QUANT	0	Vch Offset (V)
VCHFILTER	IQUANT	1	Vch Filter
IERANGELOWERLIMIT	IQUANT	9	I/E Range Lower Limit
IERANGEMODE	TOGGLE	F	I/E AutoRange
IERANGE	IQUANT	10	I/E Range
ACHSELECT	IQUANT	1	Ach Select
ACHRANGE	IQUANT	2	Ach Range
ACHOFFSETENABLE	TOGGLE	F	Ach Offset Enable
ACHOFFSET	QUANT	0	Ach Offset (V)
ACHFILTER	IQUANT	1	Ach Filter
CABLEID	IQUANT	14	Cable ID
DCCALDATE	LABEL	20-10-2016	DC Calibration Date
ACCALDATE	LABEL	12/3/2015	AC Calibration Date
FRAMEWORKVERSION	QUANT	7.01	Framework Version
INSTRUMENTVERSION	LABEL	4.00	Instrument Version
CURVE	TABLE	71
	Pt	T	Vf	Im	Vu	Pwr	Sig	Ach	Temp	IERange	Over
	#	s	V	A	V	W	V	V	deg C	#	bits
	0	0.013333	5.86149E-001	5.99247E-003	0.00000E+000	3.51248E-003	3.59960E-001	-1.05855E+000	3.57740E+000	10	...........
	1	0.026667	5.94383E-001	5.99484E-003	0.00000E+000	3.56323E-003	3.59960E-001	-1.05583E+000	3.57740E+000	10	...........
	2	0.04	6.01906E-001	5.99594E-003	0.00000E+000	3.60899E-003	3.59960E-001	-1.06829E+000	3.57740E+000	10	...........
	3	0.053333	6.09023E-001	5.99421E-003	0.00000E+000	3.65061E-003	3.59960E-001	-1.05863E+000	3.57740E+000	10	...........
	4	0.066667	6.15960E-001	5.99181E-003	0.00000E+000	3.69071E-003	3.59960E-001	-1.05578E+000	3.57740E+000	10	...........
	5	0.08	6.22657E-001	5.99512E-003	0.00000E+000	3.73290E-003	3.59960E-001	-1.06817E+000	3.57740E+000	10	...........
	6	0.093333	6.29202E-001	5.99232E-003	0.00000E+000	3.77038E-003	3.59960E-001	-1.05853E+000	3.57784E+000	10	...........
	7	0.106667	6.35594E-001	5.99033E-003	0.00000E+000	3.80742E-003	3.59960E-001	-1.05590E+000	3.57790E+000	10	...........
	8	0.12	6.41978E-001	5.99075E-003	0.00000E+000	3.84593E-003	3.59960E-001	-1.06820E+000	3.57790E+000	10	...........
	9	0.133333	6.48228E-001	5.99738E-003	0.00000E+000	3.88767E-003	3.59960E-001	-1.05807E+000	3.57790E+000	10	...........
	10	0.146667	6.54431E-001	5.99109E-003	0.00000E+000	3.92076E-003	3.59960E-001	-1.05542E+000	3.57790E+000	10	...........
	11	0.16	6.60607E-001	5.99615E-003	0.00000E+000	3.96110E-003	3.59960E-001	-1.06819E+000	3.57790E+000	10	...........
	12	0.173333	6.66752E-001	5.99627E-003	0.00000E+000	3.99803E-003	3.59960E-001	-1.05852E+000	3.57790E+000	10	...........
	13	0.186667	6.72886E-001	5.99236E-003	0.00000E+000	4.03217E-003	3.59960E-001	-1.05571E+000	3.57790E+000	10	...........
	14	0.2	6.78919E-001	5.98966E-003	0.00000E+000	4.06649E-003	3.59960E-001	-1.06804E+000	3.57790E+000	10	...........
	15	0.213333	6.84961E-001	5.99207E-003	0.00000E+000	4.10434E-003	3.59960E-001	-1.05785E+000	3.57790E+000	10	...........
	16	0.226667	6.90998E-001	5.99376E-003	0.00000E+000	4.14168E-003	3.59960E-001	-1.05567E+000	3.57790E+000	10	...........
	17	0.24	6.97009E-001	5.99410E-003	0.00000E+000	4.17795E-003	3.59960E-001	-1.06804E+000	3.57790E+000	10	...........
	18	0.253333	7.02947E-001	5.99133E-003	0.00000E+000	4.21159E-003	3.59960E-001	-1.05804E+000	3.57790E+000	10	...........
	19	0.266667	7.08870E-001	5.99361E-003	0.00000E+000	4.24869E-003	3.59960E-001	-1.05511E+000	3.57790E+000	10	...........
	20	0.28	7.14847E-001	5.99744E-003	0.00000E+000	4.28726E-003	3.59960E-001	-1.06738E+000	3.57790E+000	10	...........
	21	0.293333	7.20776E-001	5.99332E-003	0.00000E+000	4.31984E-003	3.59960E-001	-1.05759E+000	3.57790E+000	10	...........
	22	0.306667	7.26697E-001	5.99119E-003	0.00000E+000	4.35378E-003	3.59960E-001	-1.05530E+000	3.57790E+000	10	...........
	23	0.32	7.32618E-001	5.99544E-003	0.00000E+000	4.39236E-003	3.59960E-001	-1.06754E+000	3.57790E+000	10	...........
	24	0.333333	7.38540E-001	5.99481E-003	0.00000E+000	4.42741E-003	3.59960E-001	-1.05742E+000	3.57790E+000	10	...........
	25	0.346667	7.44447E-001	5.99253E-003	0.00000E+000	4.46112E-003	3.59960E-001	-1.05500E+000	3.57790E+000	10	...........
	26	0.36	7.50333E-001	5.99131E-003	0.00000E+000	4.49548E-003	3.59960E-001	-1.06762E+000	3.57790E+000	10	...........
	27	0.373333	7.56255E-001	5.99137E-003	0.00000E+000	4.53101E-003	3.59960E-001	-1.05765E+000	3.57790E+000	10	...........
	28	0.386667	7.62084E-001	5.99113E-003	0.00000E+000	4.56574E-003	3.59960E-001	-1.05532E+000	3.57790E+000	10	...........
	29	0.4	7.67957E-001	5.99460E-003	0.00000E+000	4.60360E-003	3.59960E-001	-1.06747E+000	3.57790E+000	10	...........
	30	0.413333	7.73837E-001	5.99247E-003	0.00000E+000	4.63719E-003	3.59960E-001	-1.05724E+000	3.57790E+000	10	...........
	31	0.426667	7.79729E-001	5.99308E-003	0.00000E+000	4.67298E-003	3.59960E-001	-1.05509E+000	3.57790E+000	10	...........
	32	0.44	7.85608E-001	5.99596E-003	0.00000E+000	4.71048E-003	3.59960E-001	-1.06757E+000	3.57790E+000	10	...........
	33	0.453333	7.91484E-001	5.98962E-003	0.00000E+000	4.74069E-003	3.59960E-001	-1.05739E+000	3.57790E+000	10	...........
	34	0.466667	7.97410E-001	5.99203E-003	0.00000E+000	4.77811E-003	3.59960E-001	-1.05499E+000	3.57790E+000	10	...........
	35	0.48	8.03224E-001	5.99333E-003	0.00000E+000	4.81399E-003	3.59960E-001	-1.06742E+000	3.57790E+000	10	...........
	36	0.493333	8.09057E-001	5.99325E-003	0.00000E+000	4.84888E-003	3.59960E-001	-1.05726E+000	3.57790E+000	10	...........
	37	0.506667	8.14881E-001	5.99419E-003	0.00000E+000	4.88455E-003	3.59960E-001	-1.05526E+000	3.57790E+000	10	...........
	38	0.52	8.20765E-001	5.99030E-003	0.00000E+000	4.91663E-003	3.59960E-001	-1.06785E+000	3.57790E+000	10	...........
	39	0.533333	8.26624E-001	5.99343E-003	0.00000E+000	4.95431E-003	3.59960E-001	-1.05729E+000	3.57790E+000	10	...........
	40	0.546667	8.32460E-001	5.99071E-003	0.00000E+000	4.98703E-003	3.59960E-001	-1.05511E+000	3.57790E+000	10	...........
	41	0.56	8.38255E-001	5.99166E-003	0.00000E+000	5.02254E-003	3.59960E-001	-1.06750E+000	3.57790E+000	10	...........
	42	0.573333	8.44129E-001	5.99198E-003	0.00000E+000	5.05800E-003	3.59960E-001	-1.05734E+000	3.57790E+000	10	...........
	43	0.586667	8.49972E-001	5.99407E-003	0.00000E+000	5.09480E-003	3.59960E-001	-1.05495E+000	3.57790E+000	10	...........
	44	0.6	8.55776E-001	5.99567E-003	0.00000E+000	5.13095E-003	3.59960E-001	-1.06711E+000	3.57790E+000	10	...........
	45	0.613333	8.61637E-001	5.99338E-003	0.00000E+000	5.16412E-003	3.59960E-001	-1.05661E+000	3.57790E+000	10	...........
	46	0.626667	8.67475E-001	5.99253E-003	0.00000E+000	5.19837E-003	3.59960E-001	-1.05476E+000	3.57790E+000	10	...........
	47	0.64	8.73298E-001	5.99148E-003	0.00000E+000	5.23235E-003	3.59960E-001	-1.06712E+000	3.57790E+000	10	...........
	48	0.653333	8.79059E-001	5.99679E-003	0.00000E+000	5.27153E-003	3.59960E-001	-1.05687E+000	3.57790E+000	10	...........
	49	0.666667	8.84845E-001	5.99284E-003	0.00000E+000	5.30274E-003	3.59960E-001	-1.05475E+000	3.57790E+000	10	...........
	50	0.68	8.90620E-001	6.00007E-003	0.00000E+000	5.34378E-003	3.59960E-001	-1.06683E+000	3.57790E+000	10	...........
	51	0.693333	8.96343E-001	5.99336E-003	0.00000E+000	5.37211E-003	3.59960E-001	-1.05668E+000	3.57790E+000	10	...........
	52	0.706667	9.02079E-001	5.99328E-003	0.00000E+000	5.40641E-003	3.59960E-001	-1.05475E+000	3.57790E+000	10	...........
	53	0.72	9.07787E-001	5.99553E-003	0.00000E+000	5.44267E-003	3.59960E-001	-1.06712E+000	3.57790E+000	10	...........
	54	0.733333	9.13491E-001	5.99685E-003	0.00000E+000	5.47806E-003	3.59960E-001	-1.05668E+000	3.57790E+000	10	...........
	55	0.746667	9.19234E-001	5.99844E-003	0.00000E+000	5.51397E-003	3.59960E-001	-1.05454E+000	3.57790E+000	10	...........
	56	0.76	9.24919E-001	5.99134E-003	0.00000E+000	5.54150E-003	3.59960E-001	-1.06696E+000	3.57790E+000	10	...........
	57	0.773333	9.30581E-001	5.99552E-003	0.00000E+000	5.57932E-003	3.59960E-001	-1.05648E+000	3.57790E+000	10	...........
	58	0.786667	9.36205E-001	5.99926E-003	0.00000E+000	5.61654E-003	3.59960E-001	-1.05453E+000	3.57790E+000	10	...........
	59	0.8	9.41805E-001	5.99095E-003	0.00000E+000	5.64231E-003	3.59960E-001	-1.06706E+000	3.57790E+000	10	...........
	60	0.813333	9.47431E-001	5.99695E-003	0.00000E+000	5.68170E-003	3.59960E-001	-1.05645E+000	3.57790E+000	10	...........
	61	0.826667	9.52987E-001	5.99210E-003	0.00000E+000	5.71039E-003	3.59960E-001	-1.05461E+000	3.57790E+000	10	...........
	62	0.84	9.58534E-001	5.99413E-003	0.00000E+000	5.74557E-003	3.59960E-001	-1.06751E+000	3.57790E+000	10	...........
	63	0.853333	9.64072E-001	5.99078E-003	0.00000E+000	5.77554E-003	3.59960E-001	-1.05658E+000	3.57790E+000	10	...........
	64	0.866667	9.69554E-001	5.99149E-003	0.00000E+000	5.80907E-003	3.59960E-001	-1.05469E+000	3.57790E+000	10	...........
	65	0.88	9.75048E-001	5.99301E-003	0.00000E+000	5.84347E-003	3.59960E-001	-1.06699E+000	3.57790E+000	10	...........
	66	0.893333	9.80446E-001	5.99203E-003	0.00000E+000	5.87486E-003	3.59960E-001	-1.05645E+000	3.57790E+000	10	...........
	67	0.906667	9.85829E-001	5.99529E-003	0.00000E+000	5.91033E-003	3.59960E-001	-1.05445E+000	3.57790E+000	10	...........
	68	0.92	9.91207E-001	5.99311E-003	0.00000E+000	5.94042E-003	3.59960E-001	-1.06679E+000	3.57790E+000	10	...........
	69	0.933333	9.96515E-001	5.99348E-003	0.00000E+000	5.97259E-003	3.59960E-001	-1.05609E+000	3.57790E+000	10	...........
	70	0.936667	9.99829E-001	5.99254E-003	0.00000E+000	5.99151E-003	3.59960E-001	-1.06849E+000	3.57790E+000	10	...........
STARTTIMEOFFSET	QUANT	176.6733	Start Time Offset (s)