Folder: Tesis/Data/CV_CRGO300517_1/PWRCCD_CRGO300517_1/CHARGE_DISCHARGE (part 99)

File: CHARGE_#197.DTA
EXPLAIN
TAG	PWR800_CHARGE
TITLE	LABEL	PWR Cyclic Charge Discharge (Cell) - Charge Step	Test &Identifier
DATE	LABEL	22-6-2017	Date
TIME	LABEL	15:43:41	Time
NOTES	NOTES	3	&Notes...
	supercap test cell
	0.6mg
	6M KOH
PSTAT	PSTAT	IFC5000-01520	Potentiostat
CAPACITY	QUANT	1.00000E-003	Capacity (A-hr)
CELLTYPE	SELECTOR	1	&Cell Type
WORKINGCONNECTION	SELECTOR	0	&Working Lead
MAXCHARGETIME	VARIABLEANDUNITS	1.00000E+002	s	1.00000E+002	second(s)	Max &Charge Time
CHARGECURRENT	QUANT	6.00000E-003	&Charge Current (A)
VOLTAGEFINISH	TWOPARAM	F	1.00000E-003	3.60000E+003	&Voltage Finish	 I (A) < 	Max Time(s)
SAMPLETIME	QUANT	1.00000E-002	Sa&mple Period (s)
CHARGESTOPAT1	MULTIPARAM	4	1.00000E+000	Charge Stop At &1	Voltage > Limit	V
CHARGESTOPAT2	MULTIPARAM	0	0.00000E+000	Charge Stop At &2	None	N/A
AESBHCSELECTOR	TOGGLE	F	Save Both Half Cells
IRCOMP	TOGGLE	F	IR &Measure
EOC	QUANT	0	Open Circuit (V)
SEQUENCER	TOGGLE	TRUE	Run as Sequence
PSTATMODEL	IQUANT	53	Pstat Model
PSTATSECTION	LABEL	IFC5000-01520	Pstat Section
PSTATSERIALNO	LABEL	01520	Pstat Serial Number
CTRLMODE	IQUANT	0	Control Mode
ELECTROMETER	IQUANT	1	RE=0 or CS=1
IESTAB	IQUANT	0	I/E Stability
CASPEED	IQUANT	4	Control Amp Speed
CONVENTION	IQUANT	1	Current Convention
ICHRANGE	IQUANT	2	Ich Range
ICHRANGEMODE	TOGGLE	T	Ich Auto Range
ICHOFFSETENABLE	TOGGLE	F	Ich Offset Enable
ICHOFFSET	QUANT	0	Ich Offset (V)
ICHFILTER	IQUANT	1	Ich Filter
VCHRANGE	IQUANT	2	Vch Range
VCHRANGEMODE	TOGGLE	T	Vch Auto Range
VCHOFFSETENABLE	TOGGLE	F	Vch Offset Enable
VCHOFFSET	QUANT	0	Vch Offset (V)
VCHFILTER	IQUANT	1	Vch Filter
IERANGELOWERLIMIT	IQUANT	9	I/E Range Lower Limit
IERANGEMODE	TOGGLE	F	I/E AutoRange
IERANGE	IQUANT	10	I/E Range
ACHSELECT	IQUANT	1	Ach Select
ACHRANGE	IQUANT	2	Ach Range
ACHOFFSETENABLE	TOGGLE	F	Ach Offset Enable
ACHOFFSET	QUANT	0	Ach Offset (V)
ACHFILTER	IQUANT	1	Ach Filter
CABLEID	IQUANT	14	Cable ID
DCCALDATE	LABEL	20-10-2016	DC Calibration Date
ACCALDATE	LABEL	12/3/2015	AC Calibration Date
FRAMEWORKVERSION	QUANT	7.01	Framework Version
INSTRUMENTVERSION	LABEL	4.00	Instrument Version
CURVE	TABLE	65
	Pt	T	Vf	Im	Vu	Pwr	Sig	Ach	Temp	IERange	Over
	#	s	V	A	V	W	V	V	deg C	#	bits
	0	0.013333	6.05542E-001	5.99376E-003	0.00000E+000	3.62947E-003	3.59960E-001	-1.08646E+000	3.57740E+000	10	...........
	1	0.026667	6.14074E-001	5.99200E-003	0.00000E+000	3.67953E-003	3.59960E-001	-1.09667E+000	3.57740E+000	10	...........
	2	0.04	6.21910E-001	5.99584E-003	0.00000E+000	3.72887E-003	3.59960E-001	-1.08703E+000	3.57740E+000	10	...........
	3	0.053333	6.29227E-001	5.99223E-003	0.00000E+000	3.77047E-003	3.59960E-001	-1.08614E+000	3.57740E+000	10	...........
	4	0.066667	6.36323E-001	5.99724E-003	0.00000E+000	3.81619E-003	3.59960E-001	-1.09614E+000	3.57740E+000	10	...........
	5	0.08	6.43263E-001	5.99549E-003	0.00000E+000	3.85668E-003	3.59960E-001	-1.08624E+000	3.57740E+000	10	...........
	6	0.093333	6.50017E-001	5.99563E-003	0.00000E+000	3.89726E-003	3.59960E-001	-1.08576E+000	3.57740E+000	10	...........
	7	0.106667	6.56663E-001	5.99300E-003	0.00000E+000	3.93538E-003	3.59960E-001	-1.09613E+000	3.57740E+000	10	...........
	8	0.12	6.63236E-001	5.99766E-003	0.00000E+000	3.97786E-003	3.59960E-001	-1.08652E+000	3.57740E+000	10	...........
	9	0.133333	6.69758E-001	5.99051E-003	0.00000E+000	4.01219E-003	3.59960E-001	-1.08528E+000	3.57740E+000	10	...........
	10	0.146667	6.76166E-001	5.99285E-003	0.00000E+000	4.05216E-003	3.59960E-001	-1.09576E+000	3.57740E+000	10	...........
	11	0.16	6.82567E-001	5.99383E-003	0.00000E+000	4.09119E-003	3.59960E-001	-1.08646E+000	3.57740E+000	10	...........
	12	0.173333	6.88913E-001	5.99385E-003	0.00000E+000	4.12924E-003	3.59960E-001	-1.08534E+000	3.57740E+000	10	...........
	13	0.186667	6.95210E-001	5.99119E-003	0.00000E+000	4.16514E-003	3.59960E-001	-1.09571E+000	3.57700E+000	10	...........
	14	0.2	7.01465E-001	5.99321E-003	0.00000E+000	4.20402E-003	3.59960E-001	-1.08616E+000	3.57700E+000	10	...........
	15	0.213333	7.07716E-001	5.99153E-003	0.00000E+000	4.24030E-003	3.59960E-001	-1.08495E+000	3.57700E+000	10	...........
	16	0.226667	7.13961E-001	5.99351E-003	0.00000E+000	4.27913E-003	3.59960E-001	-1.09566E+000	3.57700E+000	10	...........
	17	0.24	7.20239E-001	5.99505E-003	0.00000E+000	4.31787E-003	3.59960E-001	-1.08638E+000	3.57700E+000	10	...........
	18	0.253333	7.26419E-001	5.99093E-003	0.00000E+000	4.35193E-003	3.59960E-001	-1.08487E+000	3.57700E+000	10	...........
	19	0.266667	7.32601E-001	5.99320E-003	0.00000E+000	4.39062E-003	3.59960E-001	-1.09523E+000	3.57700E+000	10	...........
	20	0.28	7.38791E-001	5.99769E-003	0.00000E+000	4.43104E-003	3.59960E-001	-1.08634E+000	3.57700E+000	10	...........
	21	0.293333	7.44953E-001	5.99405E-003	0.00000E+000	4.46529E-003	3.59960E-001	-1.08506E+000	3.57700E+000	10	...........
	22	0.306667	7.51099E-001	5.99576E-003	0.00000E+000	4.50341E-003	3.59960E-001	-1.09555E+000	3.57700E+000	10	...........
	23	0.32	7.57230E-001	5.99240E-003	0.00000E+000	4.53763E-003	3.59960E-001	-1.08643E+000	3.57700E+000	10	...........
	24	0.333333	7.63323E-001	5.99713E-003	0.00000E+000	4.57774E-003	3.59960E-001	-1.08464E+000	3.57700E+000	10	...........
	25	0.346667	7.69467E-001	5.99878E-003	0.00000E+000	4.61586E-003	3.59960E-001	-1.09534E+000	3.57700E+000	10	...........
	26	0.36	7.75568E-001	5.99271E-003	0.00000E+000	4.64775E-003	3.59960E-001	-1.08678E+000	3.57700E+000	10	...........
	27	0.373333	7.81675E-001	5.99754E-003	0.00000E+000	4.68812E-003	3.59960E-001	-1.08510E+000	3.57700E+000	10	...........
	28	0.386667	7.87799E-001	5.99529E-003	0.00000E+000	4.72309E-003	3.59960E-001	-1.09519E+000	3.57700E+000	10	...........
	29	0.4	7.93933E-001	5.99521E-003	0.00000E+000	4.75979E-003	3.59960E-001	-1.08613E+000	3.57700E+000	10	...........
	30	0.413333	8.00001E-001	5.99388E-003	0.00000E+000	4.79512E-003	3.59960E-001	-1.08440E+000	3.57700E+000	10	...........
	31	0.426667	8.06084E-001	5.98991E-003	0.00000E+000	4.82837E-003	3.59960E-001	-1.09518E+000	3.57700E+000	10	...........
	32	0.44	8.12168E-001	5.99512E-003	0.00000E+000	4.86904E-003	3.59960E-001	-1.08664E+000	3.57700E+000	10	...........
	33	0.453333	8.18233E-001	5.99014E-003	0.00000E+000	4.90133E-003	3.59960E-001	-1.08438E+000	3.57700E+000	10	...........
	34	0.466667	8.24292E-001	5.99082E-003	0.00000E+000	4.93818E-003	3.59960E-001	-1.09489E+000	3.57700E+000	10	...........
	35	0.48	8.30359E-001	5.99248E-003	0.00000E+000	4.97591E-003	3.59960E-001	-1.08663E+000	3.57700E+000	10	...........
	36	0.493333	8.36397E-001	5.99265E-003	0.00000E+000	5.01224E-003	3.59960E-001	-1.08462E+000	3.57700E+000	10	...........
	37	0.506667	8.42406E-001	5.99389E-003	0.00000E+000	5.04928E-003	3.59960E-001	-1.09491E+000	3.57700E+000	10	...........
	38	0.52	8.48483E-001	5.99819E-003	0.00000E+000	5.08936E-003	3.59960E-001	-1.08649E+000	3.57700E+000	10	...........
	39	0.533333	8.54470E-001	5.99811E-003	0.00000E+000	5.12521E-003	3.59960E-001	-1.08420E+000	3.57700E+000	10	...........
	40	0.546667	8.60441E-001	5.99468E-003	0.00000E+000	5.15807E-003	3.59960E-001	-1.09469E+000	3.57700E+000	10	...........
	41	0.56	8.66421E-001	5.98946E-003	0.00000E+000	5.18940E-003	3.59960E-001	-1.08680E+000	3.57700E+000	10	...........
	42	0.573333	8.72431E-001	5.99136E-003	0.00000E+000	5.22705E-003	3.59960E-001	-1.08437E+000	3.57700E+000	10	...........
	43	0.586667	8.78379E-001	5.99563E-003	0.00000E+000	5.26643E-003	3.59960E-001	-1.09454E+000	3.57700E+000	10	...........
	44	0.6	8.84329E-001	5.99569E-003	0.00000E+000	5.30216E-003	3.59960E-001	-1.08670E+000	3.57700E+000	10	...........
	45	0.613333	8.90235E-001	5.99220E-003	0.00000E+000	5.33446E-003	3.59960E-001	-1.08430E+000	3.57700E+000	10	...........
	46	0.626667	8.96114E-001	5.99660E-003	0.00000E+000	5.37364E-003	3.59960E-001	-1.09493E+000	3.57700E+000	10	...........
	47	0.64	9.02005E-001	5.99463E-003	0.00000E+000	5.40718E-003	3.59960E-001	-1.08711E+000	3.57700E+000	10	...........
	48	0.653333	9.07927E-001	5.99437E-003	0.00000E+000	5.44245E-003	3.59960E-001	-1.08428E+000	3.57700E+000	10	...........
	49	0.666667	9.13756E-001	5.99185E-003	0.00000E+000	5.47509E-003	3.59960E-001	-1.09465E+000	3.57700E+000	10	...........
	50	0.68	9.19584E-001	5.99284E-003	0.00000E+000	5.51092E-003	3.59960E-001	-1.08700E+000	3.57700E+000	10	...........
	51	0.693333	9.25394E-001	5.99616E-003	0.00000E+000	5.54881E-003	3.59960E-001	-1.08440E+000	3.57700E+000	10	...........
	52	0.706667	9.31167E-001	5.98966E-003	0.00000E+000	5.57738E-003	3.59960E-001	-1.09464E+000	3.57700E+000	10	...........
	53	0.72	9.36907E-001	5.99265E-003	0.00000E+000	5.61456E-003	3.59960E-001	-1.08691E+000	3.57700E+000	10	...........
	54	0.733333	9.42599E-001	5.99306E-003	0.00000E+000	5.64905E-003	3.59960E-001	-1.08372E+000	3.57700E+000	10	...........
	55	0.746667	9.48322E-001	5.99213E-003	0.00000E+000	5.68247E-003	3.59960E-001	-1.09417E+000	3.57700E+000	10	...........
	56	0.76	9.53993E-001	5.99638E-003	0.00000E+000	5.72050E-003	3.59960E-001	-1.08690E+000	3.57700E+000	10	...........
	57	0.773333	9.59609E-001	5.99254E-003	0.00000E+000	5.75050E-003	3.59960E-001	-1.08401E+000	3.57700E+000	10	...........
	58	0.786667	9.65185E-001	5.99324E-003	0.00000E+000	5.78458E-003	3.59960E-001	-1.09414E+000	3.57700E+000	10	...........
	59	0.8	9.70781E-001	5.99373E-003	0.00000E+000	5.81860E-003	3.59960E-001	-1.08685E+000	3.57700E+000	10	...........
	60	0.813333	9.76330E-001	5.99135E-003	0.00000E+000	5.84954E-003	3.59960E-001	-1.08381E+000	3.57700E+000	10	...........
	61	0.826667	9.81845E-001	5.99231E-003	0.00000E+000	5.88352E-003	3.59960E-001	-1.09411E+000	3.57700E+000	10	...........
	62	0.84	9.87296E-001	5.99447E-003	0.00000E+000	5.91831E-003	3.59960E-001	-1.08712E+000	3.57700E+000	10	...........
	63	0.853333	9.92671E-001	5.99564E-003	0.00000E+000	5.95170E-003	3.59960E-001	-1.08368E+000	3.57700E+000	10	...........
	64	0.866667	9.98097E-001	5.99469E-003	0.00000E+000	5.98328E-003	3.59960E-001	-1.09366E+000	3.57700E+000	10	...........
STARTTIMEOFFSET	QUANT	367.795	Start Time Offset (s)

File: CHARGE_#198.DTA
EXPLAIN
TAG	PWR800_CHARGE
TITLE	LABEL	PWR Cyclic Charge Discharge (Cell) - Charge Step	Test &Identifier
DATE	LABEL	22-6-2017	Date
TIME	LABEL	15:43:43	Time
NOTES	NOTES	3	&Notes...
	supercap test cell
	0.6mg
	6M KOH
PSTAT	PSTAT	IFC5000-01520	Potentiostat
CAPACITY	QUANT	1.00000E-003	Capacity (A-hr)
CELLTYPE	SELECTOR	1	&Cell Type
WORKINGCONNECTION	SELECTOR	0	&Working Lead
MAXCHARGETIME	VARIABLEANDUNITS	1.00000E+002	s	1.00000E+002	second(s)	Max &Charge Time
CHARGECURRENT	QUANT	6.00000E-003	&Charge Current (A)
VOLTAGEFINISH	TWOPARAM	F	1.00000E-003	3.60000E+003	&Voltage Finish	 I (A) < 	Max Time(s)
SAMPLETIME	QUANT	1.00000E-002	Sa&mple Period (s)
CHARGESTOPAT1	MULTIPARAM	4	1.00000E+000	Charge Stop At &1	Voltage > Limit	V
CHARGESTOPAT2	MULTIPARAM	0	0.00000E+000	Charge Stop At &2	None	N/A
AESBHCSELECTOR	TOGGLE	F	Save Both Half Cells
IRCOMP	TOGGLE	F	IR &Measure
EOC	QUANT	0	Open Circuit (V)
SEQUENCER	TOGGLE	TRUE	Run as Sequence
PSTATMODEL	IQUANT	53	Pstat Model
PSTATSECTION	LABEL	IFC5000-01520	Pstat Section
PSTATSERIALNO	LABEL	01520	Pstat Serial Number
CTRLMODE	IQUANT	0	Control Mode
ELECTROMETER	IQUANT	1	RE=0 or CS=1
IESTAB	IQUANT	0	I/E Stability
CASPEED	IQUANT	4	Control Amp Speed
CONVENTION	IQUANT	1	Current Convention
ICHRANGE	IQUANT	2	Ich Range
ICHRANGEMODE	TOGGLE	T	Ich Auto Range
ICHOFFSETENABLE	TOGGLE	F	Ich Offset Enable
ICHOFFSET	QUANT	0	Ich Offset (V)
ICHFILTER	IQUANT	1	Ich Filter
VCHRANGE	IQUANT	2	Vch Range
VCHRANGEMODE	TOGGLE	T	Vch Auto Range
VCHOFFSETENABLE	TOGGLE	F	Vch Offset Enable
VCHOFFSET	QUANT	0	Vch Offset (V)
VCHFILTER	IQUANT	1	Vch Filter
IERANGELOWERLIMIT	IQUANT	9	I/E Range Lower Limit
IERANGEMODE	TOGGLE	F	I/E AutoRange
IERANGE	IQUANT	10	I/E Range
ACHSELECT	IQUANT	1	Ach Select
ACHRANGE	IQUANT	2	Ach Range
ACHOFFSETENABLE	TOGGLE	F	Ach Offset Enable
ACHOFFSET	QUANT	0	Ach Offset (V)
ACHFILTER	IQUANT	1	Ach Filter
CABLEID	IQUANT	14	Cable ID
DCCALDATE	LABEL	20-10-2016	DC Calibration Date
ACCALDATE	LABEL	12/3/2015	AC Calibration Date
FRAMEWORKVERSION	QUANT	7.01	Framework Version
INSTRUMENTVERSION	LABEL	4.00	Instrument Version
CURVE	TABLE	65
	Pt	T	Vf	Im	Vu	Pwr	Sig	Ach	Temp	IERange	Over
	#	s	V	A	V	W	V	V	deg C	#	bits
	0	0.013333	6.06025E-001	5.99118E-003	0.00000E+000	3.63080E-003	3.59960E-001	-1.08645E+000	3.57820E+000	10	...........
	1	0.026667	6.14511E-001	5.99270E-003	0.00000E+000	3.68258E-003	3.59960E-001	-1.09707E+000	3.57820E+000	10	...........
	2	0.04	6.22281E-001	5.99417E-003	0.00000E+000	3.73005E-003	3.59960E-001	-1.08803E+000	3.57820E+000	10	...........
	3	0.053333	6.29587E-001	5.99449E-003	0.00000E+000	3.77405E-003	3.59960E-001	-1.08653E+000	3.57820E+000	10	...........
	4	0.066667	6.36708E-001	5.99738E-003	0.00000E+000	3.81858E-003	3.59960E-001	-1.09711E+000	3.57820E+000	10	...........
	5	0.08	6.43612E-001	5.99393E-003	0.00000E+000	3.85776E-003	3.59960E-001	-1.08792E+000	3.57820E+000	10	...........
	6	0.093333	6.50375E-001	5.99418E-003	0.00000E+000	3.89846E-003	3.59960E-001	-1.08616E+000	3.57820E+000	10	...........
	7	0.106667	6.57002E-001	5.99164E-003	0.00000E+000	3.93652E-003	3.59960E-001	-1.09697E+000	3.57820E+000	10	...........
	8	0.12	6.63563E-001	5.99372E-003	0.00000E+000	3.97721E-003	3.59960E-001	-1.08784E+000	3.57820E+000	10	...........
	9	0.133333	6.70047E-001	5.99505E-003	0.00000E+000	4.01697E-003	3.59960E-001	-1.08615E+000	3.57820E+000	10	...........
	10	0.146667	6.76474E-001	5.99395E-003	0.00000E+000	4.05475E-003	3.59960E-001	-1.09672E+000	3.57820E+000	10	...........
	11	0.16	6.82858E-001	5.99407E-003	0.00000E+000	4.09310E-003	3.59960E-001	-1.08820E+000	3.57820E+000	10	...........
	12	0.173333	6.89205E-001	5.99500E-003	0.00000E+000	4.13179E-003	3.59960E-001	-1.08654E+000	3.57820E+000	10	...........
	13	0.186667	6.95531E-001	5.99259E-003	0.00000E+000	4.16804E-003	3.59960E-001	-1.09747E+000	3.57820E+000	10	...........
	14	0.2	7.01772E-001	5.99390E-003	0.00000E+000	4.20635E-003	3.59960E-001	-1.08900E+000	3.57820E+000	10	...........
	15	0.213333	7.08056E-001	5.99077E-003	0.00000E+000	4.24180E-003	3.59960E-001	-1.08760E+000	3.57820E+000	10	...........
	16	0.226667	7.14252E-001	5.99084E-003	0.00000E+000	4.27897E-003	3.59960E-001	-1.09874E+000	3.57820E+000	10	...........
	17	0.24	7.20509E-001	5.99103E-003	0.00000E+000	4.31659E-003	3.59960E-001	-1.09073E+000	3.57820E+000	10	...........
	18	0.253333	7.26732E-001	5.99486E-003	0.00000E+000	4.35665E-003	3.59960E-001	-1.08926E+000	3.57820E+000	10	...........
	19	0.266667	7.32923E-001	5.99233E-003	0.00000E+000	4.39192E-003	3.59960E-001	-1.10011E+000	3.57820E+000	10	...........
	20	0.28	7.39069E-001	5.98985E-003	0.00000E+000	4.42691E-003	3.59960E-001	-1.09175E+000	3.57820E+000	10	...........
	21	0.293333	7.45246E-001	5.99320E-003	0.00000E+000	4.46641E-003	3.59960E-001	-1.08990E+000	3.57820E+000	10	...........
	22	0.306667	7.51397E-001	5.99056E-003	0.00000E+000	4.50129E-003	3.59960E-001	-1.10073E+000	3.57820E+000	10	...........
	23	0.32	7.57582E-001	5.99534E-003	0.00000E+000	4.54196E-003	3.59960E-001	-1.09261E+000	3.57820E+000	10	...........
	24	0.333333	7.63725E-001	5.99497E-003	0.00000E+000	4.57851E-003	3.59960E-001	-1.09042E+000	3.57820E+000	10	...........
	25	0.346667	7.69863E-001	5.99801E-003	0.00000E+000	4.61764E-003	3.59960E-001	-1.10119E+000	3.57820E+000	10	...........
	26	0.36	7.75995E-001	5.99513E-003	0.00000E+000	4.65219E-003	3.59960E-001	-1.09310E+000	3.57820E+000	10	...........
	27	0.373333	7.82098E-001	5.99065E-003	0.00000E+000	4.68528E-003	3.59960E-001	-1.09090E+000	3.57820E+000	10	...........
	28	0.386667	7.88193E-001	5.99318E-003	0.00000E+000	4.72378E-003	3.59960E-001	-1.10148E+000	3.57820E+000	10	...........
	29	0.4	7.94285E-001	5.99599E-003	0.00000E+000	4.76253E-003	3.59960E-001	-1.09334E+000	3.57820E+000	10	...........
	30	0.413333	8.00375E-001	5.99675E-003	0.00000E+000	4.79965E-003	3.59960E-001	-1.09102E+000	3.57820E+000	10	...........
	31	0.426667	8.06450E-001	5.99208E-003	0.00000E+000	4.83231E-003	3.59960E-001	-1.10154E+000	3.57820E+000	10	...........
	32	0.44	8.12520E-001	5.99535E-003	0.00000E+000	4.87134E-003	3.59960E-001	-1.09341E+000	3.57820E+000	10	...........
	33	0.453333	8.18587E-001	5.98990E-003	0.00000E+000	4.90325E-003	3.59960E-001	-1.09096E+000	3.57820E+000	10	...........
	34	0.466667	8.24620E-001	5.99786E-003	0.00000E+000	4.94596E-003	3.59960E-001	-1.10159E+000	3.57820E+000	10	...........
	35	0.48	8.30656E-001	5.99283E-003	0.00000E+000	4.97798E-003	3.59960E-001	-1.09395E+000	3.57820E+000	10	...........
	36	0.493333	8.36717E-001	5.99022E-003	0.00000E+000	5.01212E-003	3.59960E-001	-1.09124E+000	3.57820E+000	10	...........
	37	0.506667	8.42772E-001	5.99272E-003	0.00000E+000	5.05049E-003	3.59960E-001	-1.10172E+000	3.57820E+000	10	...........
	38	0.52	8.48822E-001	5.99130E-003	0.00000E+000	5.08555E-003	3.59960E-001	-1.09450E+000	3.57820E+000	10	...........
	39	0.533333	8.54799E-001	5.99637E-003	0.00000E+000	5.12569E-003	3.59960E-001	-1.09174E+000	3.57820E+000	10	...........
	40	0.546667	8.60829E-001	5.99595E-003	0.00000E+000	5.16149E-003	3.59960E-001	-1.10221E+000	3.57820E+000	10	...........
	41	0.56	8.66766E-001	5.99264E-003	0.00000E+000	5.19422E-003	3.59960E-001	-1.09464E+000	3.57820E+000	10	...........
	42	0.573333	8.72747E-001	5.99502E-003	0.00000E+000	5.23214E-003	3.59960E-001	-1.09205E+000	3.57820E+000	10	...........
	43	0.586667	8.78685E-001	5.99073E-003	0.00000E+000	5.26396E-003	3.59960E-001	-1.10252E+000	3.57820E+000	10	...........
	44	0.6	8.84646E-001	5.98987E-003	0.00000E+000	5.29892E-003	3.59960E-001	-1.09489E+000	3.57820E+000	10	...........
	45	0.613333	8.90586E-001	5.99666E-003	0.00000E+000	5.34054E-003	3.59960E-001	-1.09222E+000	3.57820E+000	10	...........
	46	0.626667	8.96528E-001	5.99081E-003	0.00000E+000	5.37093E-003	3.59960E-001	-1.10256E+000	3.57820E+000	10	...........
	47	0.64	9.02383E-001	5.99563E-003	0.00000E+000	5.41035E-003	3.59960E-001	-1.09575E+000	3.57820E+000	10	...........
	48	0.653333	9.08239E-001	5.99733E-003	0.00000E+000	5.44700E-003	3.59960E-001	-1.09270E+000	3.57820E+000	10	...........
	49	0.666667	9.14105E-001	5.99704E-003	0.00000E+000	5.48192E-003	3.59960E-001	-1.10361E+000	3.57843E+000	10	...........
	50	0.68	9.19973E-001	5.99374E-003	0.00000E+000	5.51408E-003	3.59960E-001	-1.09682E+000	3.57850E+000	10	...........
	51	0.693333	9.25790E-001	5.99607E-003	0.00000E+000	5.55110E-003	3.59960E-001	-1.09408E+000	3.57850E+000	10	...........
	52	0.706667	9.31537E-001	5.99816E-003	0.00000E+000	5.58751E-003	3.59960E-001	-1.10505E+000	3.57850E+000	10	...........
	53	0.72	9.37247E-001	5.99387E-003	0.00000E+000	5.61774E-003	3.59960E-001	-1.09895E+000	3.57850E+000	10	...........
	54	0.733333	9.42992E-001	5.99258E-003	0.00000E+000	5.65095E-003	3.59960E-001	-1.09619E+000	3.57850E+000	10	...........
	55	0.746667	9.48749E-001	5.99844E-003	0.00000E+000	5.69102E-003	3.59960E-001	-1.10703E+000	3.57850E+000	10	...........
	56	0.76	9.54420E-001	5.99370E-003	0.00000E+000	5.72050E-003	3.59960E-001	-1.10099E+000	3.57850E+000	10	...........
	57	0.773333	9.60032E-001	5.99683E-003	0.00000E+000	5.75714E-003	3.59960E-001	-1.09853E+000	3.57850E+000	10	...........
	58	0.786667	9.65617E-001	5.99671E-003	0.00000E+000	5.79053E-003	3.59960E-001	-1.10964E+000	3.57850E+000	10	...........
	59	0.8	9.71206E-001	5.99294E-003	0.00000E+000	5.82037E-003	3.59960E-001	-1.10358E+000	3.57850E+000	10	...........
	60	0.813333	9.76798E-001	5.99553E-003	0.00000E+000	5.85642E-003	3.59960E-001	-1.10028E+000	3.57850E+000	10	...........
	61	0.826667	9.82269E-001	5.99514E-003	0.00000E+000	5.88884E-003	3.59960E-001	-1.11063E+000	3.57850E+000	10	...........
	62	0.84	9.87666E-001	5.99067E-003	0.00000E+000	5.91678E-003	3.59960E-001	-1.10428E+000	3.57850E+000	10	...........
	63	0.853333	9.93066E-001	5.99069E-003	0.00000E+000	5.94916E-003	3.59960E-001	-1.10021E+000	3.57850E+000	10	...........
	64	0.865	9.98132E-001	5.99541E-003	0.00000E+000	5.98421E-003	3.59960E-001	-1.11155E+000	3.57850E+000	10	...........
STARTTIMEOFFSET	QUANT	369.5184	Start Time Offset (s)