Folder: Tesis/Data/CV_CRGO300517_1/PWRCCD_CRGO300517_1/CHARGE_DISCHARGE (part 36)

File: CHARGE_#71.DTA
EXPLAIN
TAG	PWR800_CHARGE
TITLE	LABEL	PWR Cyclic Charge Discharge (Cell) - Charge Step	Test &Identifier
DATE	LABEL	22-6-2017	Date
TIME	LABEL	15:38:13	Time
NOTES	NOTES	3	&Notes...
	supercap test cell
	0.6mg
	6M KOH
PSTAT	PSTAT	IFC5000-01520	Potentiostat
CAPACITY	QUANT	1.00000E-003	Capacity (A-hr)
CELLTYPE	SELECTOR	1	&Cell Type
WORKINGCONNECTION	SELECTOR	0	&Working Lead
MAXCHARGETIME	VARIABLEANDUNITS	1.00000E+002	s	1.00000E+002	second(s)	Max &Charge Time
CHARGECURRENT	QUANT	6.00000E-003	&Charge Current (A)
VOLTAGEFINISH	TWOPARAM	F	1.00000E-003	3.60000E+003	&Voltage Finish	 I (A) < 	Max Time(s)
SAMPLETIME	QUANT	1.00000E-002	Sa&mple Period (s)
CHARGESTOPAT1	MULTIPARAM	4	1.00000E+000	Charge Stop At &1	Voltage > Limit	V
CHARGESTOPAT2	MULTIPARAM	0	0.00000E+000	Charge Stop At &2	None	N/A
AESBHCSELECTOR	TOGGLE	F	Save Both Half Cells
IRCOMP	TOGGLE	F	IR &Measure
EOC	QUANT	0	Open Circuit (V)
SEQUENCER	TOGGLE	TRUE	Run as Sequence
PSTATMODEL	IQUANT	53	Pstat Model
PSTATSECTION	LABEL	IFC5000-01520	Pstat Section
PSTATSERIALNO	LABEL	01520	Pstat Serial Number
CTRLMODE	IQUANT	0	Control Mode
ELECTROMETER	IQUANT	1	RE=0 or CS=1
IESTAB	IQUANT	0	I/E Stability
CASPEED	IQUANT	4	Control Amp Speed
CONVENTION	IQUANT	1	Current Convention
ICHRANGE	IQUANT	2	Ich Range
ICHRANGEMODE	TOGGLE	T	Ich Auto Range
ICHOFFSETENABLE	TOGGLE	F	Ich Offset Enable
ICHOFFSET	QUANT	0	Ich Offset (V)
ICHFILTER	IQUANT	1	Ich Filter
VCHRANGE	IQUANT	2	Vch Range
VCHRANGEMODE	TOGGLE	T	Vch Auto Range
VCHOFFSETENABLE	TOGGLE	F	Vch Offset Enable
VCHOFFSET	QUANT	0	Vch Offset (V)
VCHFILTER	IQUANT	1	Vch Filter
IERANGELOWERLIMIT	IQUANT	9	I/E Range Lower Limit
IERANGEMODE	TOGGLE	F	I/E AutoRange
IERANGE	IQUANT	10	I/E Range
ACHSELECT	IQUANT	1	Ach Select
ACHRANGE	IQUANT	2	Ach Range
ACHOFFSETENABLE	TOGGLE	F	Ach Offset Enable
ACHOFFSET	QUANT	0	Ach Offset (V)
ACHFILTER	IQUANT	1	Ach Filter
CABLEID	IQUANT	14	Cable ID
DCCALDATE	LABEL	20-10-2016	DC Calibration Date
ACCALDATE	LABEL	12/3/2015	AC Calibration Date
FRAMEWORKVERSION	QUANT	7.01	Framework Version
INSTRUMENTVERSION	LABEL	4.00	Instrument Version
CURVE	TABLE	72
	Pt	T	Vf	Im	Vu	Pwr	Sig	Ach	Temp	IERange	Over
	#	s	V	A	V	W	V	V	deg C	#	bits
	0	0.013333	5.81511E-001	5.99173E-003	0.00000E+000	3.48425E-003	3.59960E-001	-1.05801E+000	3.57760E+000	10	...........
	1	0.026667	5.89694E-001	5.99600E-003	0.00000E+000	3.53580E-003	3.59960E-001	-1.05513E+000	3.57760E+000	10	...........
	2	0.04	5.97165E-001	5.99173E-003	0.00000E+000	3.57805E-003	3.59960E-001	-1.04811E+000	3.57760E+000	10	...........
	3	0.053333	6.04298E-001	5.99786E-003	0.00000E+000	3.62449E-003	3.59960E-001	-1.05753E+000	3.57760E+000	10	...........
	4	0.066667	6.11101E-001	5.99275E-003	0.00000E+000	3.66218E-003	3.59960E-001	-1.05483E+000	3.57760E+000	10	...........
	5	0.08	6.17823E-001	5.99724E-003	0.00000E+000	3.70523E-003	3.59960E-001	-1.04839E+000	3.57760E+000	10	...........
	6	0.093333	6.24340E-001	5.99577E-003	0.00000E+000	3.74340E-003	3.59960E-001	-1.05786E+000	3.57760E+000	10	...........
	7	0.106667	6.30716E-001	5.99254E-003	0.00000E+000	3.77959E-003	3.59960E-001	-1.05464E+000	3.57760E+000	10	...........
	8	0.12	6.36985E-001	5.99253E-003	0.00000E+000	3.81715E-003	3.59960E-001	-1.04816E+000	3.57760E+000	10	...........
	9	0.133333	6.43250E-001	5.99197E-003	0.00000E+000	3.85433E-003	3.59960E-001	-1.05763E+000	3.57760E+000	10	...........
	10	0.146667	6.49393E-001	5.99633E-003	0.00000E+000	3.89397E-003	3.59960E-001	-1.05493E+000	3.57760E+000	10	...........
	11	0.16	6.55507E-001	5.99474E-003	0.00000E+000	3.92959E-003	3.59960E-001	-1.04844E+000	3.57760E+000	10	...........
	12	0.173333	6.61545E-001	5.99293E-003	0.00000E+000	3.96459E-003	3.59960E-001	-1.05761E+000	3.57760E+000	10	...........
	13	0.186667	6.67611E-001	5.99039E-003	0.00000E+000	3.99925E-003	3.59960E-001	-1.05481E+000	3.57760E+000	10	...........
	14	0.2	6.73586E-001	5.99508E-003	0.00000E+000	4.03820E-003	3.59960E-001	-1.04843E+000	3.57760E+000	10	...........
	15	0.213333	6.79562E-001	5.99220E-003	0.00000E+000	4.07207E-003	3.59960E-001	-1.05779E+000	3.57760E+000	10	...........
	16	0.226667	6.85533E-001	5.99521E-003	0.00000E+000	4.10991E-003	3.59960E-001	-1.05493E+000	3.57760E+000	10	...........
	17	0.24	6.91445E-001	5.99448E-003	0.00000E+000	4.14485E-003	3.59960E-001	-1.04833E+000	3.57760E+000	10	...........
	18	0.253333	6.97335E-001	5.99415E-003	0.00000E+000	4.17993E-003	3.59960E-001	-1.05767E+000	3.57760E+000	10	...........
	19	0.266667	7.03214E-001	5.99360E-003	0.00000E+000	4.21479E-003	3.59960E-001	-1.05483E+000	3.57760E+000	10	...........
	20	0.28	7.09124E-001	5.99536E-003	0.00000E+000	4.25145E-003	3.59960E-001	-1.04799E+000	3.57760E+000	10	...........
	21	0.293333	7.15031E-001	5.99695E-003	0.00000E+000	4.28801E-003	3.59960E-001	-1.05748E+000	3.57760E+000	10	...........
	22	0.306667	7.20876E-001	5.98916E-003	0.00000E+000	4.31744E-003	3.59960E-001	-1.05477E+000	3.57760E+000	10	...........
	23	0.32	7.26733E-001	5.99330E-003	0.00000E+000	4.35553E-003	3.59960E-001	-1.04789E+000	3.57760E+000	10	...........
	24	0.333333	7.32579E-001	5.99474E-003	0.00000E+000	4.39162E-003	3.59960E-001	-1.05728E+000	3.57760E+000	10	...........
	25	0.346667	7.38399E-001	5.99633E-003	0.00000E+000	4.42768E-003	3.59960E-001	-1.05499E+000	3.57760E+000	10	...........
	26	0.36	7.44263E-001	5.99173E-003	0.00000E+000	4.45942E-003	3.59960E-001	-1.04833E+000	3.57760E+000	10	...........
	27	0.373333	7.50062E-001	5.99603E-003	0.00000E+000	4.49739E-003	3.59960E-001	-1.05760E+000	3.57760E+000	10	...........
	28	0.386667	7.55915E-001	5.99357E-003	0.00000E+000	4.53063E-003	3.59960E-001	-1.05490E+000	3.57760E+000	10	...........
	29	0.4	7.61718E-001	5.99620E-003	0.00000E+000	4.56742E-003	3.59960E-001	-1.04823E+000	3.57760E+000	10	...........
	30	0.413333	7.67556E-001	5.99475E-003	0.00000E+000	4.60130E-003	3.59960E-001	-1.05779E+000	3.57760E+000	10	...........
	31	0.426667	7.73379E-001	5.99387E-003	0.00000E+000	4.63554E-003	3.59960E-001	-1.05514E+000	3.57760E+000	10	...........
	32	0.44	7.79210E-001	5.99620E-003	0.00000E+000	4.67230E-003	3.59960E-001	-1.04850E+000	3.57760E+000	10	...........
	33	0.453333	7.85016E-001	5.99383E-003	0.00000E+000	4.70525E-003	3.59960E-001	-1.05737E+000	3.57760E+000	10	...........
	34	0.466667	7.90803E-001	5.99254E-003	0.00000E+000	4.73892E-003	3.59960E-001	-1.05499E+000	3.57760E+000	10	...........
	35	0.48	7.96670E-001	5.98954E-003	0.00000E+000	4.77168E-003	3.59960E-001	-1.04833E+000	3.57760E+000	10	...........
	36	0.493333	8.02502E-001	5.99523E-003	0.00000E+000	4.81119E-003	3.59960E-001	-1.05751E+000	3.57760E+000	10	...........
	37	0.506667	8.08272E-001	5.99412E-003	0.00000E+000	4.84487E-003	3.59960E-001	-1.05494E+000	3.57760E+000	10	...........
	38	0.52	8.14047E-001	5.99220E-003	0.00000E+000	4.87793E-003	3.59960E-001	-1.04834E+000	3.57760E+000	10	...........
	39	0.533333	8.19877E-001	5.99259E-003	0.00000E+000	4.91319E-003	3.59960E-001	-1.05727E+000	3.57760E+000	10	...........
	40	0.546667	8.25671E-001	5.99877E-003	0.00000E+000	4.95301E-003	3.59960E-001	-1.05512E+000	3.57760E+000	10	...........
	41	0.56	8.31430E-001	5.99188E-003	0.00000E+000	4.98183E-003	3.59960E-001	-1.04852E+000	3.57760E+000	10	...........
	42	0.573333	8.37218E-001	5.99362E-003	0.00000E+000	5.01797E-003	3.59960E-001	-1.05722E+000	3.57760E+000	10	...........
	43	0.586667	8.43041E-001	5.99061E-003	0.00000E+000	5.05033E-003	3.59960E-001	-1.05473E+000	3.57760E+000	10	...........
	44	0.6	8.48863E-001	5.99445E-003	0.00000E+000	5.08847E-003	3.59960E-001	-1.04762E+000	3.57760E+000	10	...........
	45	0.613333	8.54623E-001	5.99228E-003	0.00000E+000	5.12114E-003	3.59960E-001	-1.05673E+000	3.57760E+000	10	...........
	46	0.626667	8.60441E-001	5.99559E-003	0.00000E+000	5.15885E-003	3.59960E-001	-1.05453E+000	3.57760E+000	10	...........
	47	0.64	8.66187E-001	5.99287E-003	0.00000E+000	5.19095E-003	3.59960E-001	-1.04787E+000	3.57760E+000	10	...........
	48	0.653333	8.71973E-001	5.99750E-003	0.00000E+000	5.22966E-003	3.59960E-001	-1.05649E+000	3.57760E+000	10	...........
	49	0.666667	8.77703E-001	5.99356E-003	0.00000E+000	5.26056E-003	3.59960E-001	-1.05446E+000	3.57760E+000	10	...........
	50	0.68	8.83422E-001	5.99453E-003	0.00000E+000	5.29570E-003	3.59960E-001	-1.04778E+000	3.57760E+000	10	...........
	51	0.693333	8.89144E-001	5.99354E-003	0.00000E+000	5.32912E-003	3.59960E-001	-1.05687E+000	3.57760E+000	10	...........
	52	0.706667	8.94876E-001	5.99480E-003	0.00000E+000	5.36461E-003	3.59960E-001	-1.05464E+000	3.57760E+000	10	...........
	53	0.72	9.00576E-001	5.99446E-003	0.00000E+000	5.39847E-003	3.59960E-001	-1.04765E+000	3.57760E+000	10	...........
	54	0.733333	9.06242E-001	5.99277E-003	0.00000E+000	5.43090E-003	3.59960E-001	-1.05657E+000	3.57760E+000	10	...........
	55	0.746667	9.11961E-001	5.99124E-003	0.00000E+000	5.46378E-003	3.59960E-001	-1.05449E+000	3.57760E+000	10	...........
	56	0.76	9.17635E-001	5.99164E-003	0.00000E+000	5.49814E-003	3.59960E-001	-1.04786E+000	3.57794E+000	10	...........
	57	0.773333	9.23362E-001	5.99320E-003	0.00000E+000	5.53389E-003	3.59960E-001	-1.05646E+000	3.57850E+000	10	...........
	58	0.786667	9.28963E-001	5.99278E-003	0.00000E+000	5.56707E-003	3.59960E-001	-1.05434E+000	3.57850E+000	10	...........
	59	0.8	9.34527E-001	5.99380E-003	0.00000E+000	5.60137E-003	3.59960E-001	-1.04766E+000	3.57850E+000	10	...........
	60	0.813333	9.40128E-001	5.99245E-003	0.00000E+000	5.63367E-003	3.59960E-001	-1.05658E+000	3.57850E+000	10	...........
	61	0.826667	9.45726E-001	5.99631E-003	0.00000E+000	5.67086E-003	3.59960E-001	-1.05475E+000	3.57850E+000	10	...........
	62	0.84	9.51265E-001	5.99176E-003	0.00000E+000	5.69975E-003	3.59960E-001	-1.04782E+000	3.57850E+000	10	...........
	63	0.853333	9.56813E-001	5.99474E-003	0.00000E+000	5.73585E-003	3.59960E-001	-1.05662E+000	3.57850E+000	10	...........
	64	0.866667	9.62286E-001	5.99151E-003	0.00000E+000	5.76555E-003	3.59960E-001	-1.05454E+000	3.57850E+000	10	...........
	65	0.88	9.67725E-001	5.99089E-003	0.00000E+000	5.79753E-003	3.59960E-001	-1.04806E+000	3.57850E+000	10	...........
	66	0.893333	9.73254E-001	5.99287E-003	0.00000E+000	5.83259E-003	3.59960E-001	-1.05686E+000	3.57850E+000	10	...........
	67	0.906667	9.78689E-001	5.99672E-003	0.00000E+000	5.86892E-003	3.59960E-001	-1.05464E+000	3.57850E+000	10	...........
	68	0.92	9.84037E-001	5.99434E-003	0.00000E+000	5.89866E-003	3.59960E-001	-1.04742E+000	3.57850E+000	10	...........
	69	0.933333	9.89406E-001	5.99422E-003	0.00000E+000	5.93072E-003	3.59960E-001	-1.05611E+000	3.57850E+000	10	...........
	70	0.946667	9.94709E-001	5.99218E-003	0.00000E+000	5.96047E-003	3.59960E-001	-1.05441E+000	3.57850E+000	10	...........
	71	0.955	9.98998E-001	5.98954E-003	0.00000E+000	5.98353E-003	3.59960E-001	-1.04626E+000	3.57850E+000	10	...........
STARTTIMEOFFSET	QUANT	140.96	Start Time Offset (s)

File: CHARGE_#72.DTA
EXPLAIN
TAG	PWR800_CHARGE
TITLE	LABEL	PWR Cyclic Charge Discharge (Cell) - Charge Step	Test &Identifier
DATE	LABEL	22-6-2017	Date
TIME	LABEL	15:38:16	Time
NOTES	NOTES	3	&Notes...
	supercap test cell
	0.6mg
	6M KOH
PSTAT	PSTAT	IFC5000-01520	Potentiostat
CAPACITY	QUANT	1.00000E-003	Capacity (A-hr)
CELLTYPE	SELECTOR	1	&Cell Type
WORKINGCONNECTION	SELECTOR	0	&Working Lead
MAXCHARGETIME	VARIABLEANDUNITS	1.00000E+002	s	1.00000E+002	second(s)	Max &Charge Time
CHARGECURRENT	QUANT	6.00000E-003	&Charge Current (A)
VOLTAGEFINISH	TWOPARAM	F	1.00000E-003	3.60000E+003	&Voltage Finish	 I (A) < 	Max Time(s)
SAMPLETIME	QUANT	1.00000E-002	Sa&mple Period (s)
CHARGESTOPAT1	MULTIPARAM	4	1.00000E+000	Charge Stop At &1	Voltage > Limit	V
CHARGESTOPAT2	MULTIPARAM	0	0.00000E+000	Charge Stop At &2	None	N/A
AESBHCSELECTOR	TOGGLE	F	Save Both Half Cells
IRCOMP	TOGGLE	F	IR &Measure
EOC	QUANT	0	Open Circuit (V)
SEQUENCER	TOGGLE	TRUE	Run as Sequence
PSTATMODEL	IQUANT	53	Pstat Model
PSTATSECTION	LABEL	IFC5000-01520	Pstat Section
PSTATSERIALNO	LABEL	01520	Pstat Serial Number
CTRLMODE	IQUANT	0	Control Mode
ELECTROMETER	IQUANT	1	RE=0 or CS=1
IESTAB	IQUANT	0	I/E Stability
CASPEED	IQUANT	4	Control Amp Speed
CONVENTION	IQUANT	1	Current Convention
ICHRANGE	IQUANT	2	Ich Range
ICHRANGEMODE	TOGGLE	T	Ich Auto Range
ICHOFFSETENABLE	TOGGLE	F	Ich Offset Enable
ICHOFFSET	QUANT	0	Ich Offset (V)
ICHFILTER	IQUANT	1	Ich Filter
VCHRANGE	IQUANT	2	Vch Range
VCHRANGEMODE	TOGGLE	T	Vch Auto Range
VCHOFFSETENABLE	TOGGLE	F	Vch Offset Enable
VCHOFFSET	QUANT	0	Vch Offset (V)
VCHFILTER	IQUANT	1	Vch Filter
IERANGELOWERLIMIT	IQUANT	9	I/E Range Lower Limit
IERANGEMODE	TOGGLE	F	I/E AutoRange
IERANGE	IQUANT	10	I/E Range
ACHSELECT	IQUANT	1	Ach Select
ACHRANGE	IQUANT	2	Ach Range
ACHOFFSETENABLE	TOGGLE	F	Ach Offset Enable
ACHOFFSET	QUANT	0	Ach Offset (V)
ACHFILTER	IQUANT	1	Ach Filter
CABLEID	IQUANT	14	Cable ID
DCCALDATE	LABEL	20-10-2016	DC Calibration Date
ACCALDATE	LABEL	12/3/2015	AC Calibration Date
FRAMEWORKVERSION	QUANT	7.01	Framework Version
INSTRUMENTVERSION	LABEL	4.00	Instrument Version
CURVE	TABLE	72
	Pt	T	Vf	Im	Vu	Pwr	Sig	Ach	Temp	IERange	Over
	#	s	V	A	V	W	V	V	deg C	#	bits
	0	0.013333	5.81179E-001	5.99263E-003	0.00000E+000	3.48279E-003	3.59960E-001	-1.05006E+000	3.57700E+000	10	...........
	1	0.026667	5.89383E-001	5.99413E-003	0.00000E+000	3.53284E-003	3.59960E-001	-1.05160E+000	3.57700E+000	10	...........
	2	0.04	5.96842E-001	5.98948E-003	0.00000E+000	3.57478E-003	3.59960E-001	-1.06148E+000	3.57700E+000	10	...........
	3	0.053333	6.03990E-001	5.99397E-003	0.00000E+000	3.62030E-003	3.59960E-001	-1.04980E+000	3.57700E+000	10	...........
	4	0.066667	6.10815E-001	5.99151E-003	0.00000E+000	3.65970E-003	3.59960E-001	-1.05153E+000	3.57700E+000	10	...........
	5	0.08	6.17488E-001	5.98981E-003	0.00000E+000	3.69863E-003	3.59960E-001	-1.06180E+000	3.57700E+000	10	...........
	6	0.093333	6.23987E-001	5.99377E-003	0.00000E+000	3.74004E-003	3.59960E-001	-1.05023E+000	3.57719E+000	10	...........
	7	0.106667	6.30372E-001	5.99446E-003	0.00000E+000	3.77874E-003	3.59960E-001	-1.05164E+000	3.57730E+000	10	...........
	8	0.12	6.36686E-001	5.99679E-003	0.00000E+000	3.81807E-003	3.59960E-001	-1.06159E+000	3.57730E+000	10	...........
	9	0.133333	6.42957E-001	5.99143E-003	0.00000E+000	3.85223E-003	3.59960E-001	-1.04988E+000	3.57730E+000	10	...........
	10	0.146667	6.49106E-001	5.99372E-003	0.00000E+000	3.89056E-003	3.59960E-001	-1.05143E+000	3.57730E+000	10	...........
	11	0.16	6.55223E-001	5.99163E-003	0.00000E+000	3.92585E-003	3.59960E-001	-1.06167E+000	3.57730E+000	10	...........
	12	0.173333	6.61310E-001	5.98733E-003	0.00000E+000	3.95948E-003	3.59960E-001	-1.04972E+000	3.57730E+000	10	...........
	13	0.186667	6.67372E-001	5.99566E-003	0.00000E+000	4.00134E-003	3.59960E-001	-1.05092E+000	3.57730E+000	10	...........
	14	0.2	6.73371E-001	5.99409E-003	0.00000E+000	4.03625E-003	3.59960E-001	-1.06123E+000	3.57730E+000	10	...........
	15	0.213333	6.79352E-001	5.99407E-003	0.00000E+000	4.07208E-003	3.59960E-001	-1.04980E+000	3.57730E+000	10	...........
	16	0.226667	6.85298E-001	5.99717E-003	0.00000E+000	4.10985E-003	3.59960E-001	-1.05109E+000	3.57730E+000	10	...........
	17	0.24	6.91255E-001	5.99609E-003	0.00000E+000	4.14482E-003	3.59960E-001	-1.06115E+000	3.57730E+000	10	...........
	18	0.253333	6.97186E-001	5.99312E-003	0.00000E+000	4.17832E-003	3.59960E-001	-1.04940E+000	3.57730E+000	10	...........
	19	0.266667	7.03053E-001	5.99166E-003	0.00000E+000	4.21246E-003	3.59960E-001	-1.05075E+000	3.57730E+000	10	...........
	20	0.28	7.08943E-001	5.99008E-003	0.00000E+000	4.24662E-003	3.59960E-001	-1.06128E+000	3.57730E+000	10	...........
	21	0.293333	7.14810E-001	5.99222E-003	0.00000E+000	4.28330E-003	3.59960E-001	-1.04953E+000	3.57730E+000	10	...........
	22	0.306667	7.20696E-001	5.99265E-003	0.00000E+000	4.31888E-003	3.59960E-001	-1.05080E+000	3.57730E+000	10	...........
	23	0.32	7.26550E-001	5.98999E-003	0.00000E+000	4.35203E-003	3.59960E-001	-1.06078E+000	3.57730E+000	10	...........
	24	0.333333	7.32424E-001	5.99736E-003	0.00000E+000	4.39261E-003	3.59960E-001	-1.04934E+000	3.57730E+000	10	...........
	25	0.346667	7.38232E-001	5.99483E-003	0.00000E+000	4.42558E-003	3.59960E-001	-1.05063E+000	3.57730E+000	10	...........
	26	0.36	7.44097E-001	5.99105E-003	0.00000E+000	4.45792E-003	3.59960E-001	-1.06104E+000	3.57730E+000	10	...........
	27	0.373333	7.49944E-001	5.99448E-003	0.00000E+000	4.49552E-003	3.59960E-001	-1.04908E+000	3.57730E+000	10	...........
	28	0.386667	7.55791E-001	5.99609E-003	0.00000E+000	4.53179E-003	3.59960E-001	-1.05042E+000	3.57730E+000	10	...........
	29	0.4	7.61626E-001	5.99385E-003	0.00000E+000	4.56507E-003	3.59960E-001	-1.06087E+000	3.57730E+000	10	...........
	30	0.413333	7.67416E-001	5.99186E-003	0.00000E+000	4.59825E-003	3.59960E-001	-1.04945E+000	3.57730E+000	10	...........
	31	0.426667	7.73276E-001	5.99441E-003	0.00000E+000	4.63533E-003	3.59960E-001	-1.05088E+000	3.57730E+000	10	...........
	32	0.44	7.79104E-001	5.99205E-003	0.00000E+000	4.66843E-003	3.59960E-001	-1.06083E+000	3.57730E+000	10	...........
	33	0.453333	7.84939E-001	5.99056E-003	0.00000E+000	4.70223E-003	3.59960E-001	-1.04944E+000	3.57730E+000	10	...........
	34	0.466667	7.90738E-001	5.99434E-003	0.00000E+000	4.73996E-003	3.59960E-001	-1.05062E+000	3.57730E+000	10	...........
	35	0.48	7.96576E-001	5.99592E-003	0.00000E+000	4.77621E-003	3.59960E-001	-1.06103E+000	3.57730E+000	10	...........
	36	0.493333	8.02421E-001	5.99636E-003	0.00000E+000	4.81160E-003	3.59960E-001	-1.04911E+000	3.57730E+000	10	...........
	37	0.506667	8.08206E-001	5.99677E-003	0.00000E+000	4.84663E-003	3.59960E-001	-1.04986E+000	3.57730E+000	10	...........
	38	0.52	8.14028E-001	5.99959E-003	0.00000E+000	4.88383E-003	3.59960E-001	-1.06046E+000	3.57730E+000	10	...........
	39	0.533333	8.19830E-001	5.99424E-003	0.00000E+000	4.91426E-003	3.59960E-001	-1.04868E+000	3.57730E+000	10	...........
	40	0.546667	8.25628E-001	5.99415E-003	0.00000E+000	4.94894E-003	3.59960E-001	-1.05023E+000	3.57730E+000	10	...........
	41	0.56	8.31410E-001	5.99069E-003	0.00000E+000	4.98072E-003	3.59960E-001	-1.06059E+000	3.57730E+000	10	...........
	42	0.573333	8.37204E-001	5.99415E-003	0.00000E+000	5.01832E-003	3.59960E-001	-1.04881E+000	3.57730E+000	10	...........
	43	0.586667	8.43018E-001	5.99029E-003	0.00000E+000	5.04992E-003	3.59960E-001	-1.04981E+000	3.57730E+000	10	...........
	44	0.6	8.48858E-001	5.99407E-003	0.00000E+000	5.08812E-003	3.59960E-001	-1.06033E+000	3.57730E+000	10	...........
	45	0.613333	8.54586E-001	5.99929E-003	0.00000E+000	5.12691E-003	3.59960E-001	-1.04885E+000	3.57730E+000	10	...........
	46	0.626667	8.60322E-001	5.99525E-003	0.00000E+000	5.15785E-003	3.59960E-001	-1.05013E+000	3.57730E+000	10	...........
	47	0.64	8.66087E-001	5.99229E-003	0.00000E+000	5.18984E-003	3.59960E-001	-1.06049E+000	3.57730E+000	10	...........
	48	0.653333	8.71884E-001	5.99324E-003	0.00000E+000	5.22541E-003	3.59960E-001	-1.04864E+000	3.57730E+000	10	...........
	49	0.666667	8.77650E-001	5.99326E-003	0.00000E+000	5.25998E-003	3.59960E-001	-1.04999E+000	3.57730E+000	10	...........
	50	0.68	8.83411E-001	5.99121E-003	0.00000E+000	5.29270E-003	3.59960E-001	-1.06052E+000	3.57730E+000	10	...........
	51	0.693333	8.89129E-001	5.99356E-003	0.00000E+000	5.32905E-003	3.59960E-001	-1.04887E+000	3.57730E+000	10	...........
	52	0.706667	8.94843E-001	5.99503E-003	0.00000E+000	5.36461E-003	3.59960E-001	-1.05002E+000	3.57730E+000	10	...........
	53	0.72	9.00583E-001	5.99521E-003	0.00000E+000	5.39919E-003	3.59960E-001	-1.06046E+000	3.57730E+000	10	...........
	54	0.733333	9.06302E-001	5.98908E-003	0.00000E+000	5.42791E-003	3.59960E-001	-1.04883E+000	3.57730E+000	10	...........
	55	0.746667	9.11980E-001	5.99797E-003	0.00000E+000	5.47003E-003	3.59960E-001	-1.05025E+000	3.57730E+000	10	...........
	56	0.76	9.17640E-001	5.99330E-003	0.00000E+000	5.49969E-003	3.59960E-001	-1.06070E+000	3.57730E+000	10	...........
	57	0.773333	9.23369E-001	5.99570E-003	0.00000E+000	5.53625E-003	3.59960E-001	-1.04879E+000	3.57730E+000	10	...........
	58	0.786667	9.28934E-001	5.99283E-003	0.00000E+000	5.56694E-003	3.59960E-001	-1.04987E+000	3.57730E+000	10	...........
	59	0.8	9.34530E-001	5.99334E-003	0.00000E+000	5.60096E-003	3.59960E-001	-1.06050E+000	3.57730E+000	10	...........
	60	0.813333	9.40074E-001	5.98962E-003	0.00000E+000	5.63069E-003	3.59960E-001	-1.04866E+000	3.57730E+000	10	...........
	61	0.826667	9.45679E-001	5.99390E-003	0.00000E+000	5.66830E-003	3.59960E-001	-1.04965E+000	3.57730E+000	10	...........
	62	0.84	9.51227E-001	5.99279E-003	0.00000E+000	5.70050E-003	3.59960E-001	-1.06003E+000	3.57730E+000	10	...........
	63	0.853333	9.56744E-001	5.99164E-003	0.00000E+000	5.73247E-003	3.59960E-001	-1.04820E+000	3.57730E+000	10	...........
	64	0.866667	9.62321E-001	5.99505E-003	0.00000E+000	5.76917E-003	3.59960E-001	-1.04931E+000	3.57730E+000	10	...........
	65	0.88	9.67758E-001	5.99080E-003	0.00000E+000	5.79764E-003	3.59960E-001	-1.06019E+000	3.57730E+000	10	...........
	66	0.893333	9.73195E-001	5.99350E-003	0.00000E+000	5.83285E-003	3.59960E-001	-1.04860E+000	3.57730E+000	10	...........
	67	0.906667	9.78645E-001	5.99393E-003	0.00000E+000	5.86593E-003	3.59960E-001	-1.04946E+000	3.57730E+000	10	...........
	68	0.92	9.84034E-001	5.99106E-003	0.00000E+000	5.89541E-003	3.59960E-001	-1.06001E+000	3.57730E+000	10	...........
	69	0.933333	9.89336E-001	5.99318E-003	0.00000E+000	5.92927E-003	3.59960E-001	-1.04859E+000	3.57730E+000	10	...........
	70	0.946667	9.94646E-001	5.99373E-003	0.00000E+000	5.96164E-003	3.59960E-001	-1.04973E+000	3.57730E+000	10	...........
	71	0.955	9.98976E-001	5.99680E-003	0.00000E+000	5.99065E-003	3.59960E-001	-1.06038E+000	3.57730E+000	10	...........
STARTTIMEOFFSET	QUANT	142.8583	Start Time Offset (s)