Folder: Tesis/Data/CV_CRGO300517_1/PWRCCD_CRGO300517_1/CHARGE_DISCHARGE (part 187)

File: CHARGE_#380.DTA
EXPLAIN
TAG	PWR800_CHARGE
TITLE	LABEL	PWR Cyclic Charge Discharge (Cell) - Charge Step	Test &Identifier
DATE	LABEL	22-6-2017	Date
TIME	LABEL	15:51:10	Time
NOTES	NOTES	3	&Notes...
	supercap test cell
	0.6mg
	6M KOH
PSTAT	PSTAT	IFC5000-01520	Potentiostat
CAPACITY	QUANT	1.00000E-003	Capacity (A-hr)
CELLTYPE	SELECTOR	1	&Cell Type
WORKINGCONNECTION	SELECTOR	0	&Working Lead
MAXCHARGETIME	VARIABLEANDUNITS	1.00000E+002	s	1.00000E+002	second(s)	Max &Charge Time
CHARGECURRENT	QUANT	6.00000E-003	&Charge Current (A)
VOLTAGEFINISH	TWOPARAM	F	1.00000E-003	3.60000E+003	&Voltage Finish	 I (A) < 	Max Time(s)
SAMPLETIME	QUANT	1.00000E-002	Sa&mple Period (s)
CHARGESTOPAT1	MULTIPARAM	4	1.00000E+000	Charge Stop At &1	Voltage > Limit	V
CHARGESTOPAT2	MULTIPARAM	0	0.00000E+000	Charge Stop At &2	None	N/A
AESBHCSELECTOR	TOGGLE	F	Save Both Half Cells
IRCOMP	TOGGLE	F	IR &Measure
EOC	QUANT	0	Open Circuit (V)
SEQUENCER	TOGGLE	TRUE	Run as Sequence
PSTATMODEL	IQUANT	53	Pstat Model
PSTATSECTION	LABEL	IFC5000-01520	Pstat Section
PSTATSERIALNO	LABEL	01520	Pstat Serial Number
CTRLMODE	IQUANT	0	Control Mode
ELECTROMETER	IQUANT	1	RE=0 or CS=1
IESTAB	IQUANT	0	I/E Stability
CASPEED	IQUANT	4	Control Amp Speed
CONVENTION	IQUANT	1	Current Convention
ICHRANGE	IQUANT	2	Ich Range
ICHRANGEMODE	TOGGLE	T	Ich Auto Range
ICHOFFSETENABLE	TOGGLE	F	Ich Offset Enable
ICHOFFSET	QUANT	0	Ich Offset (V)
ICHFILTER	IQUANT	1	Ich Filter
VCHRANGE	IQUANT	2	Vch Range
VCHRANGEMODE	TOGGLE	T	Vch Auto Range
VCHOFFSETENABLE	TOGGLE	F	Vch Offset Enable
VCHOFFSET	QUANT	0	Vch Offset (V)
VCHFILTER	IQUANT	1	Vch Filter
IERANGELOWERLIMIT	IQUANT	9	I/E Range Lower Limit
IERANGEMODE	TOGGLE	F	I/E AutoRange
IERANGE	IQUANT	10	I/E Range
ACHSELECT	IQUANT	1	Ach Select
ACHRANGE	IQUANT	2	Ach Range
ACHOFFSETENABLE	TOGGLE	F	Ach Offset Enable
ACHOFFSET	QUANT	0	Ach Offset (V)
ACHFILTER	IQUANT	1	Ach Filter
CABLEID	IQUANT	14	Cable ID
DCCALDATE	LABEL	20-10-2016	DC Calibration Date
ACCALDATE	LABEL	12/3/2015	AC Calibration Date
FRAMEWORKVERSION	QUANT	7.01	Framework Version
INSTRUMENTVERSION	LABEL	4.00	Instrument Version
CURVE	TABLE	61
	Pt	T	Vf	Im	Vu	Pwr	Sig	Ach	Temp	IERange	Over
	#	s	V	A	V	W	V	V	deg C	#	bits
	0	0.013333	6.23647E-001	5.99575E-003	0.00000E+000	3.73923E-003	3.59960E-001	-1.11915E+000	3.57650E+000	10	...........
	1	0.026667	6.32369E-001	5.99503E-003	0.00000E+000	3.79107E-003	3.59960E-001	-1.13051E+000	3.57650E+000	10	...........
	2	0.04	6.40387E-001	5.99389E-003	0.00000E+000	3.83841E-003	3.59960E-001	-1.12104E+000	3.57650E+000	10	...........
	3	0.053333	6.47993E-001	5.99555E-003	0.00000E+000	3.88507E-003	3.59960E-001	-1.11903E+000	3.57650E+000	10	...........
	4	0.066667	6.55348E-001	5.99376E-003	0.00000E+000	3.92800E-003	3.59960E-001	-1.13037E+000	3.57650E+000	10	...........
	5	0.08	6.62455E-001	5.99269E-003	0.00000E+000	3.96989E-003	3.59960E-001	-1.12082E+000	3.57650E+000	10	...........
	6	0.093333	6.69464E-001	5.99434E-003	0.00000E+000	4.01300E-003	3.59960E-001	-1.11894E+000	3.57650E+000	10	...........
	7	0.106667	6.76353E-001	5.99087E-003	0.00000E+000	4.05194E-003	3.59960E-001	-1.13061E+000	3.57650E+000	10	...........
	8	0.12	6.83149E-001	5.99259E-003	0.00000E+000	4.09384E-003	3.59960E-001	-1.12125E+000	3.57650E+000	10	...........
	9	0.133333	6.89839E-001	5.99508E-003	0.00000E+000	4.13565E-003	3.59960E-001	-1.11885E+000	3.57650E+000	10	...........
	10	0.146667	6.96534E-001	5.99525E-003	0.00000E+000	4.17590E-003	3.59960E-001	-1.13053E+000	3.57650E+000	10	...........
	11	0.16	7.03130E-001	5.99144E-003	0.00000E+000	4.21277E-003	3.59960E-001	-1.12119E+000	3.57650E+000	10	...........
	12	0.173333	7.09717E-001	5.99701E-003	0.00000E+000	4.25618E-003	3.59960E-001	-1.11928E+000	3.57650E+000	10	...........
	13	0.186667	7.16243E-001	5.99175E-003	0.00000E+000	4.29155E-003	3.59960E-001	-1.13049E+000	3.57650E+000	10	...........
	14	0.2	7.22799E-001	5.98878E-003	0.00000E+000	4.32869E-003	3.59960E-001	-1.12124E+000	3.57650E+000	10	...........
	15	0.213333	7.29271E-001	5.99528E-003	0.00000E+000	4.37219E-003	3.59960E-001	-1.11892E+000	3.57650E+000	10	...........
	16	0.226667	7.35756E-001	5.99498E-003	0.00000E+000	4.41084E-003	3.59960E-001	-1.13051E+000	3.57650E+000	10	...........
	17	0.24	7.42196E-001	5.99229E-003	0.00000E+000	4.44745E-003	3.59960E-001	-1.12132E+000	3.57650E+000	10	...........
	18	0.253333	7.48662E-001	5.99487E-003	0.00000E+000	4.48813E-003	3.59960E-001	-1.11904E+000	3.57650E+000	10	...........
	19	0.266667	7.55067E-001	5.99765E-003	0.00000E+000	4.52863E-003	3.59960E-001	-1.13062E+000	3.57650E+000	10	...........
	20	0.28	7.61431E-001	5.99235E-003	0.00000E+000	4.56276E-003	3.59960E-001	-1.12147E+000	3.57652E+000	10	...........
	21	0.293333	7.67833E-001	5.99942E-003	0.00000E+000	4.60656E-003	3.59960E-001	-1.11907E+000	3.57670E+000	10	...........
	22	0.306667	7.74216E-001	5.99307E-003	0.00000E+000	4.63993E-003	3.59960E-001	-1.13076E+000	3.57670E+000	10	...........
	23	0.32	7.80553E-001	5.99584E-003	0.00000E+000	4.68007E-003	3.59960E-001	-1.12142E+000	3.57670E+000	10	...........
	24	0.333333	7.86860E-001	5.98970E-003	0.00000E+000	4.71306E-003	3.59960E-001	-1.11859E+000	3.57670E+000	10	...........
	25	0.346667	7.93209E-001	5.99359E-003	0.00000E+000	4.75417E-003	3.59960E-001	-1.12999E+000	3.57670E+000	10	...........
	26	0.36	7.99569E-001	5.99492E-003	0.00000E+000	4.79335E-003	3.59960E-001	-1.12106E+000	3.57670E+000	10	...........
	27	0.373333	8.05875E-001	5.99379E-003	0.00000E+000	4.83024E-003	3.59960E-001	-1.11862E+000	3.57670E+000	10	...........
	28	0.386667	8.12160E-001	5.99162E-003	0.00000E+000	4.86615E-003	3.59960E-001	-1.13024E+000	3.57670E+000	10	...........
	29	0.4	8.18493E-001	5.99513E-003	0.00000E+000	4.90697E-003	3.59960E-001	-1.12094E+000	3.57670E+000	10	...........
	30	0.413333	8.24769E-001	5.99359E-003	0.00000E+000	4.94333E-003	3.59960E-001	-1.11848E+000	3.57670E+000	10	...........
	31	0.426667	8.31002E-001	5.99379E-003	0.00000E+000	4.98085E-003	3.59960E-001	-1.13004E+000	3.57670E+000	10	...........
	32	0.44	8.37210E-001	5.99658E-003	0.00000E+000	5.02039E-003	3.59960E-001	-1.12090E+000	3.57670E+000	10	...........
	33	0.453333	8.43422E-001	5.99699E-003	0.00000E+000	5.05800E-003	3.59960E-001	-1.11846E+000	3.57670E+000	10	...........
	34	0.466667	8.49656E-001	5.99365E-003	0.00000E+000	5.09254E-003	3.59960E-001	-1.12982E+000	3.57670E+000	10	...........
	35	0.48	8.55894E-001	5.99400E-003	0.00000E+000	5.13023E-003	3.59960E-001	-1.12082E+000	3.57670E+000	10	...........
	36	0.493333	8.62050E-001	5.99271E-003	0.00000E+000	5.16602E-003	3.59960E-001	-1.11835E+000	3.57670E+000	10	...........
	37	0.506667	8.68201E-001	5.99521E-003	0.00000E+000	5.20505E-003	3.59960E-001	-1.12988E+000	3.57670E+000	10	...........
	38	0.52	8.74366E-001	5.99516E-003	0.00000E+000	5.24196E-003	3.59960E-001	-1.12087E+000	3.57670E+000	10	...........
	39	0.533333	8.80540E-001	5.99811E-003	0.00000E+000	5.28157E-003	3.59960E-001	-1.11823E+000	3.57670E+000	10	...........
	40	0.546667	8.86655E-001	6.00138E-003	0.00000E+000	5.32116E-003	3.59960E-001	-1.12936E+000	3.57670E+000	10	...........
	41	0.56	8.92714E-001	5.99239E-003	0.00000E+000	5.34950E-003	3.59960E-001	-1.12047E+000	3.57670E+000	10	...........
	42	0.573333	8.98804E-001	5.99956E-003	0.00000E+000	5.39243E-003	3.59960E-001	-1.11798E+000	3.57670E+000	10	...........
	43	0.586667	9.04825E-001	5.99603E-003	0.00000E+000	5.42536E-003	3.59960E-001	-1.12961E+000	3.57670E+000	10	...........
	44	0.6	9.10855E-001	5.99293E-003	0.00000E+000	5.45869E-003	3.59960E-001	-1.12058E+000	3.57670E+000	10	...........
	45	0.613333	9.16789E-001	5.99574E-003	0.00000E+000	5.49683E-003	3.59960E-001	-1.11737E+000	3.57670E+000	10	...........
	46	0.626667	9.22830E-001	5.99722E-003	0.00000E+000	5.53442E-003	3.59960E-001	-1.12888E+000	3.57670E+000	10	...........
	47	0.64	9.28714E-001	5.98989E-003	0.00000E+000	5.56289E-003	3.59960E-001	-1.12063E+000	3.57670E+000	10	...........
	48	0.653333	9.34624E-001	5.99082E-003	0.00000E+000	5.59916E-003	3.59960E-001	-1.11730E+000	3.57670E+000	10	...........
	49	0.666667	9.40477E-001	5.99492E-003	0.00000E+000	5.63808E-003	3.59960E-001	-1.12832E+000	3.57670E+000	10	...........
	50	0.68	9.46314E-001	5.99699E-003	0.00000E+000	5.67504E-003	3.59960E-001	-1.11981E+000	3.57670E+000	10	...........
	51	0.693333	9.52096E-001	5.99726E-003	0.00000E+000	5.70997E-003	3.59960E-001	-1.11675E+000	3.57670E+000	10	...........
	52	0.706667	9.57837E-001	5.99383E-003	0.00000E+000	5.74112E-003	3.59960E-001	-1.12847E+000	3.57670E+000	10	...........
	53	0.72	9.63584E-001	5.99366E-003	0.00000E+000	5.77539E-003	3.59960E-001	-1.11990E+000	3.57670E+000	10	...........
	54	0.733333	9.69238E-001	5.99070E-003	0.00000E+000	5.80642E-003	3.59960E-001	-1.11637E+000	3.57670E+000	10	...........
	55	0.746667	9.74891E-001	5.99371E-003	0.00000E+000	5.84321E-003	3.59960E-001	-1.12750E+000	3.57670E+000	10	...........
	56	0.76	9.80463E-001	5.99490E-003	0.00000E+000	5.87778E-003	3.59960E-001	-1.11923E+000	3.57670E+000	10	...........
	57	0.773333	9.85983E-001	5.99054E-003	0.00000E+000	5.90656E-003	3.59960E-001	-1.11648E+000	3.57670E+000	10	...........
	58	0.786667	9.91492E-001	5.99340E-003	0.00000E+000	5.94240E-003	3.59960E-001	-1.12779E+000	3.57670E+000	10	...........
	59	0.8	9.96943E-001	5.99634E-003	0.00000E+000	5.97800E-003	3.59960E-001	-1.11913E+000	3.57670E+000	10	...........
	60	0.801667	1.00001E+000	5.99696E-003	0.00000E+000	5.99705E-003	3.59960E-001	-1.12994E+000	3.57670E+000	10	...........
STARTTIMEOFFSET	QUANT	670.8365	Start Time Offset (s)

File: CHARGE_#381.DTA
EXPLAIN
TAG	PWR800_CHARGE
TITLE	LABEL	PWR Cyclic Charge Discharge (Cell) - Charge Step	Test &Identifier
DATE	LABEL	22-6-2017	Date
TIME	LABEL	15:51:13	Time
NOTES	NOTES	3	&Notes...
	supercap test cell
	0.6mg
	6M KOH
PSTAT	PSTAT	IFC5000-01520	Potentiostat
CAPACITY	QUANT	1.00000E-003	Capacity (A-hr)
CELLTYPE	SELECTOR	1	&Cell Type
WORKINGCONNECTION	SELECTOR	0	&Working Lead
MAXCHARGETIME	VARIABLEANDUNITS	1.00000E+002	s	1.00000E+002	second(s)	Max &Charge Time
CHARGECURRENT	QUANT	6.00000E-003	&Charge Current (A)
VOLTAGEFINISH	TWOPARAM	F	1.00000E-003	3.60000E+003	&Voltage Finish	 I (A) < 	Max Time(s)
SAMPLETIME	QUANT	1.00000E-002	Sa&mple Period (s)
CHARGESTOPAT1	MULTIPARAM	4	1.00000E+000	Charge Stop At &1	Voltage > Limit	V
CHARGESTOPAT2	MULTIPARAM	0	0.00000E+000	Charge Stop At &2	None	N/A
AESBHCSELECTOR	TOGGLE	F	Save Both Half Cells
IRCOMP	TOGGLE	F	IR &Measure
EOC	QUANT	0	Open Circuit (V)
SEQUENCER	TOGGLE	TRUE	Run as Sequence
PSTATMODEL	IQUANT	53	Pstat Model
PSTATSECTION	LABEL	IFC5000-01520	Pstat Section
PSTATSERIALNO	LABEL	01520	Pstat Serial Number
CTRLMODE	IQUANT	0	Control Mode
ELECTROMETER	IQUANT	1	RE=0 or CS=1
IESTAB	IQUANT	0	I/E Stability
CASPEED	IQUANT	4	Control Amp Speed
CONVENTION	IQUANT	1	Current Convention
ICHRANGE	IQUANT	2	Ich Range
ICHRANGEMODE	TOGGLE	T	Ich Auto Range
ICHOFFSETENABLE	TOGGLE	F	Ich Offset Enable
ICHOFFSET	QUANT	0	Ich Offset (V)
ICHFILTER	IQUANT	1	Ich Filter
VCHRANGE	IQUANT	2	Vch Range
VCHRANGEMODE	TOGGLE	T	Vch Auto Range
VCHOFFSETENABLE	TOGGLE	F	Vch Offset Enable
VCHOFFSET	QUANT	0	Vch Offset (V)
VCHFILTER	IQUANT	1	Vch Filter
IERANGELOWERLIMIT	IQUANT	9	I/E Range Lower Limit
IERANGEMODE	TOGGLE	F	I/E AutoRange
IERANGE	IQUANT	10	I/E Range
ACHSELECT	IQUANT	1	Ach Select
ACHRANGE	IQUANT	2	Ach Range
ACHOFFSETENABLE	TOGGLE	F	Ach Offset Enable
ACHOFFSET	QUANT	0	Ach Offset (V)
ACHFILTER	IQUANT	1	Ach Filter
CABLEID	IQUANT	14	Cable ID
DCCALDATE	LABEL	20-10-2016	DC Calibration Date
ACCALDATE	LABEL	12/3/2015	AC Calibration Date
FRAMEWORKVERSION	QUANT	7.01	Framework Version
INSTRUMENTVERSION	LABEL	4.00	Instrument Version
CURVE	TABLE	61
	Pt	T	Vf	Im	Vu	Pwr	Sig	Ach	Temp	IERange	Over
	#	s	V	A	V	W	V	V	deg C	#	bits
	0	0.013333	6.23744E-001	5.99282E-003	0.00000E+000	3.73798E-003	3.59960E-001	-1.11810E+000	3.57680E+000	10	...........
	1	0.026667	6.32484E-001	5.99220E-003	0.00000E+000	3.78997E-003	3.59960E-001	-1.12906E+000	3.57680E+000	10	...........
	2	0.04	6.40595E-001	5.99983E-003	0.00000E+000	3.84346E-003	3.59960E-001	-1.11852E+000	3.57680E+000	10	...........
	3	0.053333	6.48136E-001	5.99123E-003	0.00000E+000	3.88313E-003	3.59960E-001	-1.11807E+000	3.57680E+000	10	...........
	4	0.066667	6.55493E-001	5.99355E-003	0.00000E+000	3.92873E-003	3.59960E-001	-1.12939E+000	3.57680E+000	10	...........
	5	0.08	6.62614E-001	5.99531E-003	0.00000E+000	3.97258E-003	3.59960E-001	-1.11890E+000	3.57680E+000	10	...........
	6	0.093333	6.69626E-001	5.99472E-003	0.00000E+000	4.01422E-003	3.59960E-001	-1.11801E+000	3.57680E+000	10	...........
	7	0.106667	6.76492E-001	5.99321E-003	0.00000E+000	4.05436E-003	3.59960E-001	-1.12929E+000	3.57680E+000	10	...........
	8	0.12	6.83296E-001	5.99488E-003	0.00000E+000	4.09627E-003	3.59960E-001	-1.11904E+000	3.57680E+000	10	...........
	9	0.133333	6.90013E-001	5.99637E-003	0.00000E+000	4.13757E-003	3.59960E-001	-1.11794E+000	3.57680E+000	10	...........
	10	0.146667	6.96681E-001	5.99620E-003	0.00000E+000	4.17744E-003	3.59960E-001	-1.12946E+000	3.57680E+000	10	...........
	11	0.16	7.03273E-001	5.99293E-003	0.00000E+000	4.21466E-003	3.59960E-001	-1.11883E+000	3.57680E+000	10	...........
	12	0.173333	7.09823E-001	6.00022E-003	0.00000E+000	4.25909E-003	3.59960E-001	-1.11779E+000	3.57680E+000	10	...........
	13	0.186667	7.16414E-001	6.00111E-003	0.00000E+000	4.29928E-003	3.59960E-001	-1.12895E+000	3.57680E+000	10	...........
	14	0.2	7.22929E-001	5.99373E-003	0.00000E+000	4.33304E-003	3.59960E-001	-1.11843E+000	3.57680E+000	10	...........
	15	0.213333	7.29414E-001	5.99493E-003	0.00000E+000	4.37278E-003	3.59960E-001	-1.11753E+000	3.57680E+000	10	...........
	16	0.226667	7.35905E-001	5.99843E-003	0.00000E+000	4.41428E-003	3.59960E-001	-1.12903E+000	3.57680E+000	10	...........
	17	0.24	7.42315E-001	5.99299E-003	0.00000E+000	4.44868E-003	3.59960E-001	-1.11843E+000	3.57680E+000	10	...........
	18	0.253333	7.48751E-001	5.99143E-003	0.00000E+000	4.48609E-003	3.59960E-001	-1.11737E+000	3.57680E+000	10	...........
	19	0.266667	7.55172E-001	5.99393E-003	0.00000E+000	4.52645E-003	3.59960E-001	-1.12890E+000	3.57680E+000	10	...........
	20	0.28	7.61556E-001	5.99142E-003	0.00000E+000	4.56280E-003	3.59960E-001	-1.11855E+000	3.57680E+000	10	...........
	21	0.293333	7.67917E-001	5.99204E-003	0.00000E+000	4.60139E-003	3.59960E-001	-1.11726E+000	3.57680E+000	10	...........
	22	0.306667	7.74332E-001	5.99506E-003	0.00000E+000	4.64217E-003	3.59960E-001	-1.12876E+000	3.57680E+000	10	...........
	23	0.32	7.80710E-001	5.99408E-003	0.00000E+000	4.67964E-003	3.59960E-001	-1.11867E+000	3.57680E+000	10	...........
	24	0.333333	7.87073E-001	5.99016E-003	0.00000E+000	4.71469E-003	3.59960E-001	-1.11723E+000	3.57680E+000	10	...........
	25	0.346667	7.93404E-001	5.99280E-003	0.00000E+000	4.75471E-003	3.59960E-001	-1.12864E+000	3.57680E+000	10	...........
	26	0.36	7.99746E-001	5.99634E-003	0.00000E+000	4.79555E-003	3.59960E-001	-1.11863E+000	3.57680E+000	10	...........
	27	0.373333	8.06021E-001	5.99031E-003	0.00000E+000	4.82831E-003	3.59960E-001	-1.11713E+000	3.57680E+000	10	...........
	28	0.386667	8.12288E-001	6.00000E-003	0.00000E+000	4.87373E-003	3.59960E-001	-1.12904E+000	3.57680E+000	10	...........
	29	0.4	8.18568E-001	6.00091E-003	0.00000E+000	4.91215E-003	3.59960E-001	-1.11898E+000	3.57680E+000	10	...........
	30	0.413333	8.24867E-001	5.99475E-003	0.00000E+000	4.94487E-003	3.59960E-001	-1.11736E+000	3.57680E+000	10	...........
	31	0.426667	8.31115E-001	5.99583E-003	0.00000E+000	4.98322E-003	3.59960E-001	-1.12893E+000	3.57680E+000	10	...........
	32	0.44	8.37355E-001	5.99718E-003	0.00000E+000	5.02177E-003	3.59960E-001	-1.11889E+000	3.57680E+000	10	...........
	33	0.453333	8.43555E-001	5.99623E-003	0.00000E+000	5.05815E-003	3.59960E-001	-1.11736E+000	3.57680E+000	10	...........
	34	0.466667	8.49793E-001	5.99060E-003	0.00000E+000	5.09077E-003	3.59960E-001	-1.12905E+000	3.57680E+000	10	...........
	35	0.48	8.55994E-001	5.99725E-003	0.00000E+000	5.13362E-003	3.59960E-001	-1.11904E+000	3.57680E+000	10	...........
	36	0.493333	8.62172E-001	5.99622E-003	0.00000E+000	5.16977E-003	3.59960E-001	-1.11707E+000	3.57680E+000	10	...........
	37	0.506667	8.68370E-001	5.99681E-003	0.00000E+000	5.20745E-003	3.59960E-001	-1.12837E+000	3.57680E+000	10	...........
	38	0.52	8.74503E-001	5.99243E-003	0.00000E+000	5.24039E-003	3.59960E-001	-1.11859E+000	3.57680E+000	10	...........
	39	0.533333	8.80634E-001	5.99657E-003	0.00000E+000	5.28078E-003	3.59960E-001	-1.11685E+000	3.57680E+000	10	...........
	40	0.546667	8.86757E-001	5.99563E-003	0.00000E+000	5.31666E-003	3.59960E-001	-1.12841E+000	3.57680E+000	10	...........
	41	0.56	8.92804E-001	5.99301E-003	0.00000E+000	5.35058E-003	3.59960E-001	-1.11871E+000	3.57680E+000	10	...........
	42	0.573333	8.98837E-001	5.99157E-003	0.00000E+000	5.38544E-003	3.59960E-001	-1.11693E+000	3.57680E+000	10	...........
	43	0.586667	9.04916E-001	5.99280E-003	0.00000E+000	5.42298E-003	3.59960E-001	-1.12849E+000	3.57680E+000	10	...........
	44	0.6	9.10937E-001	5.99698E-003	0.00000E+000	5.46288E-003	3.59960E-001	-1.11931E+000	3.57680E+000	10	...........
	45	0.613333	9.16877E-001	5.98957E-003	0.00000E+000	5.49170E-003	3.59960E-001	-1.11684E+000	3.57680E+000	10	...........
	46	0.626667	9.22923E-001	5.99535E-003	0.00000E+000	5.53324E-003	3.59960E-001	-1.12839E+000	3.57680E+000	10	...........
	47	0.64	9.28835E-001	5.99172E-003	0.00000E+000	5.56532E-003	3.59960E-001	-1.11903E+000	3.57680E+000	10	...........
	48	0.653333	9.34702E-001	5.99082E-003	0.00000E+000	5.59963E-003	3.59960E-001	-1.11710E+000	3.57680E+000	10	...........
	49	0.666667	9.40546E-001	5.99233E-003	0.00000E+000	5.63606E-003	3.59960E-001	-1.12858E+000	3.57680E+000	10	...........
	50	0.68	9.46393E-001	5.99393E-003	0.00000E+000	5.67261E-003	3.59960E-001	-1.11939E+000	3.57680E+000	10	...........
	51	0.693333	9.52199E-001	5.99360E-003	0.00000E+000	5.70710E-003	3.59960E-001	-1.11686E+000	3.57680E+000	10	...........
	52	0.706667	9.57953E-001	5.99667E-003	0.00000E+000	5.74453E-003	3.59960E-001	-1.12871E+000	3.57680E+000	10	...........
	53	0.72	9.63654E-001	5.99211E-003	0.00000E+000	5.77432E-003	3.59960E-001	-1.11975E+000	3.57680E+000	10	...........
	54	0.733333	9.69351E-001	5.99034E-003	0.00000E+000	5.80674E-003	3.59960E-001	-1.11736E+000	3.57680E+000	10	...........
	55	0.746667	9.75017E-001	5.99453E-003	0.00000E+000	5.84477E-003	3.59960E-001	-1.12867E+000	3.57680E+000	10	...........
	56	0.76	9.80594E-001	5.99226E-003	0.00000E+000	5.87597E-003	3.59960E-001	-1.11971E+000	3.57680E+000	10	...........
	57	0.773333	9.86141E-001	5.99078E-003	0.00000E+000	5.90775E-003	3.59960E-001	-1.11737E+000	3.57680E+000	10	...........
	58	0.786667	9.91621E-001	5.99543E-003	0.00000E+000	5.94519E-003	3.59960E-001	-1.12883E+000	3.57680E+000	10	...........
	59	0.8	9.97074E-001	5.99176E-003	0.00000E+000	5.97423E-003	3.59960E-001	-1.11986E+000	3.57680E+000	10	...........
	60	0.801667	1.00010E+000	5.99412E-003	0.00000E+000	5.99475E-003	3.59960E-001	-1.13070E+000	3.57680E+000	10	...........
STARTTIMEOFFSET	QUANT	672.4315	Start Time Offset (s)