Folder: Tesis/Data/CV_CRGO300517_1/PWRCCD_CRGO300517_1/CHARGE_DISCHARGE (part 114)

File: CHARGE_#227.DTA
EXPLAIN
TAG	PWR800_CHARGE
TITLE	LABEL	PWR Cyclic Charge Discharge (Cell) - Charge Step	Test &Identifier
DATE	LABEL	22-6-2017	Date
TIME	LABEL	15:44:56	Time
NOTES	NOTES	3	&Notes...
	supercap test cell
	0.6mg
	6M KOH
PSTAT	PSTAT	IFC5000-01520	Potentiostat
CAPACITY	QUANT	1.00000E-003	Capacity (A-hr)
CELLTYPE	SELECTOR	1	&Cell Type
WORKINGCONNECTION	SELECTOR	0	&Working Lead
MAXCHARGETIME	VARIABLEANDUNITS	1.00000E+002	s	1.00000E+002	second(s)	Max &Charge Time
CHARGECURRENT	QUANT	6.00000E-003	&Charge Current (A)
VOLTAGEFINISH	TWOPARAM	F	1.00000E-003	3.60000E+003	&Voltage Finish	 I (A) < 	Max Time(s)
SAMPLETIME	QUANT	1.00000E-002	Sa&mple Period (s)
CHARGESTOPAT1	MULTIPARAM	4	1.00000E+000	Charge Stop At &1	Voltage > Limit	V
CHARGESTOPAT2	MULTIPARAM	0	0.00000E+000	Charge Stop At &2	None	N/A
AESBHCSELECTOR	TOGGLE	F	Save Both Half Cells
IRCOMP	TOGGLE	F	IR &Measure
EOC	QUANT	0	Open Circuit (V)
SEQUENCER	TOGGLE	TRUE	Run as Sequence
PSTATMODEL	IQUANT	53	Pstat Model
PSTATSECTION	LABEL	IFC5000-01520	Pstat Section
PSTATSERIALNO	LABEL	01520	Pstat Serial Number
CTRLMODE	IQUANT	0	Control Mode
ELECTROMETER	IQUANT	1	RE=0 or CS=1
IESTAB	IQUANT	0	I/E Stability
CASPEED	IQUANT	4	Control Amp Speed
CONVENTION	IQUANT	1	Current Convention
ICHRANGE	IQUANT	2	Ich Range
ICHRANGEMODE	TOGGLE	T	Ich Auto Range
ICHOFFSETENABLE	TOGGLE	F	Ich Offset Enable
ICHOFFSET	QUANT	0	Ich Offset (V)
ICHFILTER	IQUANT	1	Ich Filter
VCHRANGE	IQUANT	2	Vch Range
VCHRANGEMODE	TOGGLE	T	Vch Auto Range
VCHOFFSETENABLE	TOGGLE	F	Vch Offset Enable
VCHOFFSET	QUANT	0	Vch Offset (V)
VCHFILTER	IQUANT	1	Vch Filter
IERANGELOWERLIMIT	IQUANT	9	I/E Range Lower Limit
IERANGEMODE	TOGGLE	F	I/E AutoRange
IERANGE	IQUANT	10	I/E Range
ACHSELECT	IQUANT	1	Ach Select
ACHRANGE	IQUANT	2	Ach Range
ACHOFFSETENABLE	TOGGLE	F	Ach Offset Enable
ACHOFFSET	QUANT	0	Ach Offset (V)
ACHFILTER	IQUANT	1	Ach Filter
CABLEID	IQUANT	14	Cable ID
DCCALDATE	LABEL	20-10-2016	DC Calibration Date
ACCALDATE	LABEL	12/3/2015	AC Calibration Date
FRAMEWORKVERSION	QUANT	7.01	Framework Version
INSTRUMENTVERSION	LABEL	4.00	Instrument Version
CURVE	TABLE	64
	Pt	T	Vf	Im	Vu	Pwr	Sig	Ach	Temp	IERange	Over
	#	s	V	A	V	W	V	V	deg C	#	bits
	0	0.013333	6.08828E-001	5.99554E-003	0.00000E+000	3.65026E-003	3.59960E-001	-1.09588E+000	3.57710E+000	10	...........
	1	0.026667	6.17398E-001	5.99138E-003	0.00000E+000	3.69906E-003	3.59960E-001	-1.09380E+000	3.57710E+000	10	...........
	2	0.04	6.25207E-001	5.99430E-003	0.00000E+000	3.74768E-003	3.59960E-001	-1.08775E+000	3.57710E+000	10	...........
	3	0.053333	6.32596E-001	5.99619E-003	0.00000E+000	3.79316E-003	3.59960E-001	-1.09517E+000	3.57710E+000	10	...........
	4	0.066667	6.39783E-001	5.99210E-003	0.00000E+000	3.83365E-003	3.59960E-001	-1.09340E+000	3.57710E+000	10	...........
	5	0.08	6.46737E-001	5.99538E-003	0.00000E+000	3.87743E-003	3.59960E-001	-1.08775E+000	3.57710E+000	10	...........
	6	0.093333	6.53571E-001	5.99205E-003	0.00000E+000	3.91623E-003	3.59960E-001	-1.09503E+000	3.57710E+000	10	...........
	7	0.106667	6.60251E-001	5.99241E-003	0.00000E+000	3.95650E-003	3.59960E-001	-1.09356E+000	3.57710E+000	10	...........
	8	0.12	6.66882E-001	5.99476E-003	0.00000E+000	3.99780E-003	3.59960E-001	-1.08770E+000	3.57693E+000	10	...........
	9	0.133333	6.73429E-001	5.99354E-003	0.00000E+000	4.03623E-003	3.59960E-001	-1.09495E+000	3.57690E+000	10	...........
	10	0.146667	6.79893E-001	5.99215E-003	0.00000E+000	4.07402E-003	3.59960E-001	-1.09364E+000	3.57690E+000	10	...........
	11	0.16	6.86336E-001	5.99107E-003	0.00000E+000	4.11188E-003	3.59960E-001	-1.08795E+000	3.57690E+000	10	...........
	12	0.173333	6.92793E-001	5.99139E-003	0.00000E+000	4.15079E-003	3.59960E-001	-1.09462E+000	3.57690E+000	10	...........
	13	0.186667	6.99158E-001	5.99082E-003	0.00000E+000	4.18853E-003	3.59960E-001	-1.09364E+000	3.57690E+000	10	...........
	14	0.2	7.05450E-001	5.99173E-003	0.00000E+000	4.22686E-003	3.59960E-001	-1.08762E+000	3.57690E+000	10	...........
	15	0.213333	7.11775E-001	5.99538E-003	0.00000E+000	4.26736E-003	3.59960E-001	-1.09470E+000	3.57690E+000	10	...........
	16	0.226667	7.18070E-001	5.99334E-003	0.00000E+000	4.30364E-003	3.59960E-001	-1.09394E+000	3.57690E+000	10	...........
	17	0.24	7.24345E-001	5.99427E-003	0.00000E+000	4.34192E-003	3.59960E-001	-1.08761E+000	3.57690E+000	10	...........
	18	0.253333	7.30553E-001	5.99466E-003	0.00000E+000	4.37942E-003	3.59960E-001	-1.09436E+000	3.57690E+000	10	...........
	19	0.266667	7.36787E-001	5.99636E-003	0.00000E+000	4.41804E-003	3.59960E-001	-1.09417E+000	3.57690E+000	10	...........
	20	0.28	7.43021E-001	5.99263E-003	0.00000E+000	4.45266E-003	3.59960E-001	-1.08788E+000	3.57690E+000	10	...........
	21	0.293333	7.49205E-001	5.99320E-003	0.00000E+000	4.49013E-003	3.59960E-001	-1.09443E+000	3.57690E+000	10	...........
	22	0.306667	7.55420E-001	5.99424E-003	0.00000E+000	4.52817E-003	3.59960E-001	-1.09417E+000	3.57690E+000	10	...........
	23	0.32	7.61598E-001	5.99159E-003	0.00000E+000	4.56319E-003	3.59960E-001	-1.08747E+000	3.57690E+000	10	...........
	24	0.333333	7.67753E-001	5.99487E-003	0.00000E+000	4.60258E-003	3.59960E-001	-1.09437E+000	3.57690E+000	10	...........
	25	0.346667	7.73968E-001	5.99595E-003	0.00000E+000	4.64067E-003	3.59960E-001	-1.09437E+000	3.57690E+000	10	...........
	26	0.36	7.80130E-001	5.98951E-003	0.00000E+000	4.67260E-003	3.59960E-001	-1.08736E+000	3.57690E+000	10	...........
	27	0.373333	7.86290E-001	5.99742E-003	0.00000E+000	4.71571E-003	3.59960E-001	-1.09361E+000	3.57690E+000	10	...........
	28	0.386667	7.92455E-001	5.99432E-003	0.00000E+000	4.75023E-003	3.59960E-001	-1.09417E+000	3.57690E+000	10	...........
	29	0.4	7.98615E-001	5.99602E-003	0.00000E+000	4.78851E-003	3.59960E-001	-1.08719E+000	3.57690E+000	10	...........
	30	0.413333	8.04703E-001	5.99256E-003	0.00000E+000	4.82223E-003	3.59960E-001	-1.09361E+000	3.57690E+000	10	...........
	31	0.426667	8.10823E-001	5.99419E-003	0.00000E+000	4.86022E-003	3.59960E-001	-1.09435E+000	3.57690E+000	10	...........
	32	0.44	8.16949E-001	5.99283E-003	0.00000E+000	4.89584E-003	3.59960E-001	-1.08726E+000	3.57690E+000	10	...........
	33	0.453333	8.23042E-001	5.99552E-003	0.00000E+000	4.93457E-003	3.59960E-001	-1.09334E+000	3.57690E+000	10	...........
	34	0.466667	8.29127E-001	5.99393E-003	0.00000E+000	4.96973E-003	3.59960E-001	-1.09432E+000	3.57690E+000	10	...........
	35	0.48	8.35174E-001	5.99706E-003	0.00000E+000	5.00859E-003	3.59960E-001	-1.08739E+000	3.57690E+000	10	...........
	36	0.493333	8.41262E-001	5.99060E-003	0.00000E+000	5.03966E-003	3.59960E-001	-1.09339E+000	3.57690E+000	10	...........
	37	0.506667	8.47353E-001	5.98880E-003	0.00000E+000	5.07462E-003	3.59960E-001	-1.09427E+000	3.57690E+000	10	...........
	38	0.52	8.53394E-001	5.99113E-003	0.00000E+000	5.11279E-003	3.59960E-001	-1.08735E+000	3.57690E+000	10	...........
	39	0.533333	8.59389E-001	5.98982E-003	0.00000E+000	5.14759E-003	3.59960E-001	-1.09318E+000	3.57690E+000	10	...........
	40	0.546667	8.65409E-001	5.99279E-003	0.00000E+000	5.18622E-003	3.59960E-001	-1.09456E+000	3.57690E+000	10	...........
	41	0.56	8.71496E-001	5.99417E-003	0.00000E+000	5.22390E-003	3.59960E-001	-1.08766E+000	3.57690E+000	10	...........
	42	0.573333	8.77469E-001	5.99271E-003	0.00000E+000	5.25841E-003	3.59960E-001	-1.09317E+000	3.57690E+000	10	...........
	43	0.586667	8.83468E-001	5.99151E-003	0.00000E+000	5.29331E-003	3.59960E-001	-1.09488E+000	3.57690E+000	10	...........
	44	0.6	8.89447E-001	5.99506E-003	0.00000E+000	5.33229E-003	3.59960E-001	-1.08780E+000	3.57690E+000	10	...........
	45	0.613333	8.95385E-001	5.99757E-003	0.00000E+000	5.37013E-003	3.59960E-001	-1.09327E+000	3.57690E+000	10	...........
	46	0.626667	9.01291E-001	5.99500E-003	0.00000E+000	5.40324E-003	3.59960E-001	-1.09524E+000	3.57690E+000	10	...........
	47	0.64	9.07212E-001	5.99463E-003	0.00000E+000	5.43840E-003	3.59960E-001	-1.08757E+000	3.57690E+000	10	...........
	48	0.653333	9.13104E-001	5.99565E-003	0.00000E+000	5.47465E-003	3.59960E-001	-1.09318E+000	3.57690E+000	10	...........
	49	0.666667	9.18965E-001	5.99123E-003	0.00000E+000	5.50573E-003	3.59960E-001	-1.09499E+000	3.57690E+000	10	...........
	50	0.68	9.24854E-001	5.99832E-003	0.00000E+000	5.54757E-003	3.59960E-001	-1.08756E+000	3.57690E+000	10	...........
	51	0.693333	9.30652E-001	5.99605E-003	0.00000E+000	5.58024E-003	3.59960E-001	-1.09250E+000	3.57690E+000	10	...........
	52	0.706667	9.36409E-001	5.99390E-003	0.00000E+000	5.61274E-003	3.59960E-001	-1.09495E+000	3.57690E+000	10	...........
	53	0.72	9.42178E-001	5.99633E-003	0.00000E+000	5.64960E-003	3.59960E-001	-1.08740E+000	3.57690E+000	10	...........
	54	0.733333	9.47873E-001	5.99445E-003	0.00000E+000	5.68198E-003	3.59960E-001	-1.09256E+000	3.57690E+000	10	...........
	55	0.746667	9.53553E-001	5.99896E-003	0.00000E+000	5.72033E-003	3.59960E-001	-1.09523E+000	3.57690E+000	10	...........
	56	0.76	9.59190E-001	5.99506E-003	0.00000E+000	5.75041E-003	3.59960E-001	-1.08760E+000	3.57690E+000	10	...........
	57	0.773333	9.64791E-001	5.99213E-003	0.00000E+000	5.78116E-003	3.59960E-001	-1.09218E+000	3.57690E+000	10	...........
	58	0.786667	9.70385E-001	5.99004E-003	0.00000E+000	5.81264E-003	3.59960E-001	-1.09536E+000	3.57690E+000	10	...........
	59	0.8	9.76001E-001	5.99628E-003	0.00000E+000	5.85238E-003	3.59960E-001	-1.08766E+000	3.57690E+000	10	...........
	60	0.813333	9.81477E-001	5.99511E-003	0.00000E+000	5.88406E-003	3.59960E-001	-1.09222E+000	3.57690E+000	10	...........
	61	0.826667	9.86929E-001	5.99342E-003	0.00000E+000	5.91508E-003	3.59960E-001	-1.09549E+000	3.57690E+000	10	...........
	62	0.84	9.92325E-001	5.99277E-003	0.00000E+000	5.94677E-003	3.59960E-001	-1.08775E+000	3.57690E+000	10	...........
	63	0.853333	9.97737E-001	5.99245E-003	0.00000E+000	5.97888E-003	3.59960E-001	-1.09241E+000	3.57690E+000	10	...........
STARTTIMEOFFSET	QUANT	419.115	Start Time Offset (s)

File: CHARGE_#228.DTA
EXPLAIN
TAG	PWR800_CHARGE
TITLE	LABEL	PWR Cyclic Charge Discharge (Cell) - Charge Step	Test &Identifier
DATE	LABEL	22-6-2017	Date
TIME	LABEL	15:44:58	Time
NOTES	NOTES	3	&Notes...
	supercap test cell
	0.6mg
	6M KOH
PSTAT	PSTAT	IFC5000-01520	Potentiostat
CAPACITY	QUANT	1.00000E-003	Capacity (A-hr)
CELLTYPE	SELECTOR	1	&Cell Type
WORKINGCONNECTION	SELECTOR	0	&Working Lead
MAXCHARGETIME	VARIABLEANDUNITS	1.00000E+002	s	1.00000E+002	second(s)	Max &Charge Time
CHARGECURRENT	QUANT	6.00000E-003	&Charge Current (A)
VOLTAGEFINISH	TWOPARAM	F	1.00000E-003	3.60000E+003	&Voltage Finish	 I (A) < 	Max Time(s)
SAMPLETIME	QUANT	1.00000E-002	Sa&mple Period (s)
CHARGESTOPAT1	MULTIPARAM	4	1.00000E+000	Charge Stop At &1	Voltage > Limit	V
CHARGESTOPAT2	MULTIPARAM	0	0.00000E+000	Charge Stop At &2	None	N/A
AESBHCSELECTOR	TOGGLE	F	Save Both Half Cells
IRCOMP	TOGGLE	F	IR &Measure
EOC	QUANT	0	Open Circuit (V)
SEQUENCER	TOGGLE	TRUE	Run as Sequence
PSTATMODEL	IQUANT	53	Pstat Model
PSTATSECTION	LABEL	IFC5000-01520	Pstat Section
PSTATSERIALNO	LABEL	01520	Pstat Serial Number
CTRLMODE	IQUANT	0	Control Mode
ELECTROMETER	IQUANT	1	RE=0 or CS=1
IESTAB	IQUANT	0	I/E Stability
CASPEED	IQUANT	4	Control Amp Speed
CONVENTION	IQUANT	1	Current Convention
ICHRANGE	IQUANT	2	Ich Range
ICHRANGEMODE	TOGGLE	T	Ich Auto Range
ICHOFFSETENABLE	TOGGLE	F	Ich Offset Enable
ICHOFFSET	QUANT	0	Ich Offset (V)
ICHFILTER	IQUANT	1	Ich Filter
VCHRANGE	IQUANT	2	Vch Range
VCHRANGEMODE	TOGGLE	T	Vch Auto Range
VCHOFFSETENABLE	TOGGLE	F	Vch Offset Enable
VCHOFFSET	QUANT	0	Vch Offset (V)
VCHFILTER	IQUANT	1	Vch Filter
IERANGELOWERLIMIT	IQUANT	9	I/E Range Lower Limit
IERANGEMODE	TOGGLE	F	I/E AutoRange
IERANGE	IQUANT	10	I/E Range
ACHSELECT	IQUANT	1	Ach Select
ACHRANGE	IQUANT	2	Ach Range
ACHOFFSETENABLE	TOGGLE	F	Ach Offset Enable
ACHOFFSET	QUANT	0	Ach Offset (V)
ACHFILTER	IQUANT	1	Ach Filter
CABLEID	IQUANT	14	Cable ID
DCCALDATE	LABEL	20-10-2016	DC Calibration Date
ACCALDATE	LABEL	12/3/2015	AC Calibration Date
FRAMEWORKVERSION	QUANT	7.01	Framework Version
INSTRUMENTVERSION	LABEL	4.00	Instrument Version
CURVE	TABLE	64
	Pt	T	Vf	Im	Vu	Pwr	Sig	Ach	Temp	IERange	Over
	#	s	V	A	V	W	V	V	deg C	#	bits
	0	0.013333	6.09608E-001	5.99289E-003	0.00000E+000	3.65332E-003	3.59960E-001	-1.09037E+000	3.57820E+000	10	...........
	1	0.026667	6.18160E-001	5.99621E-003	0.00000E+000	3.70662E-003	3.59960E-001	-1.09310E+000	3.57820E+000	10	...........
	2	0.04	6.25936E-001	5.99708E-003	0.00000E+000	3.75378E-003	3.59960E-001	-1.09904E+000	3.57820E+000	10	...........
	3	0.053333	6.33328E-001	5.99064E-003	0.00000E+000	3.79404E-003	3.59960E-001	-1.09002E+000	3.57820E+000	10	...........
	4	0.066667	6.40470E-001	5.99639E-003	0.00000E+000	3.84051E-003	3.59960E-001	-1.09288E+000	3.57820E+000	10	...........
	5	0.08	6.47429E-001	5.99857E-003	0.00000E+000	3.88365E-003	3.59960E-001	-1.09913E+000	3.57820E+000	10	...........
	6	0.093333	6.54221E-001	5.99085E-003	0.00000E+000	3.91934E-003	3.59960E-001	-1.08993E+000	3.57820E+000	10	...........
	7	0.106667	6.60909E-001	5.99774E-003	0.00000E+000	3.96396E-003	3.59960E-001	-1.09252E+000	3.57820E+000	10	...........
	8	0.12	6.67571E-001	5.99599E-003	0.00000E+000	4.00275E-003	3.59960E-001	-1.09880E+000	3.57820E+000	10	...........
	9	0.133333	6.74120E-001	5.99362E-003	0.00000E+000	4.04042E-003	3.59960E-001	-1.08973E+000	3.57820E+000	10	...........
	10	0.146667	6.80571E-001	5.99204E-003	0.00000E+000	4.07801E-003	3.59960E-001	-1.09213E+000	3.57820E+000	10	...........
	11	0.16	6.86981E-001	5.99416E-003	0.00000E+000	4.11787E-003	3.59960E-001	-1.09890E+000	3.57820E+000	10	...........
	12	0.173333	6.93392E-001	5.99058E-003	0.00000E+000	4.15382E-003	3.59960E-001	-1.08964E+000	3.57820E+000	10	...........
	13	0.186667	6.99730E-001	5.99627E-003	0.00000E+000	4.19578E-003	3.59960E-001	-1.09193E+000	3.57820E+000	10	...........
	14	0.2	7.06035E-001	5.99387E-003	0.00000E+000	4.23189E-003	3.59960E-001	-1.09889E+000	3.57820E+000	10	...........
	15	0.213333	7.12369E-001	5.98972E-003	0.00000E+000	4.26689E-003	3.59960E-001	-1.08967E+000	3.57820E+000	10	...........
	16	0.226667	7.18700E-001	5.99783E-003	0.00000E+000	4.31064E-003	3.59960E-001	-1.09176E+000	3.57820E+000	10	...........
	17	0.24	7.24939E-001	6.00099E-003	0.00000E+000	4.35035E-003	3.59960E-001	-1.09866E+000	3.57820E+000	10	...........
	18	0.253333	7.31153E-001	5.99445E-003	0.00000E+000	4.38286E-003	3.59960E-001	-1.08943E+000	3.57820E+000	10	...........
	19	0.266667	7.37363E-001	5.99332E-003	0.00000E+000	4.41926E-003	3.59960E-001	-1.09184E+000	3.57820E+000	10	...........
	20	0.28	7.43585E-001	5.99478E-003	0.00000E+000	4.45763E-003	3.59960E-001	-1.09882E+000	3.57820E+000	10	...........
	21	0.293333	7.49790E-001	5.99317E-003	0.00000E+000	4.49362E-003	3.59960E-001	-1.08965E+000	3.57820E+000	10	...........
	22	0.306667	7.55996E-001	5.99391E-003	0.00000E+000	4.53137E-003	3.59960E-001	-1.09164E+000	3.57820E+000	10	...........
	23	0.32	7.62191E-001	5.98872E-003	0.00000E+000	4.56455E-003	3.59960E-001	-1.09882E+000	3.57820E+000	10	...........
	24	0.333333	7.68353E-001	5.99083E-003	0.00000E+000	4.60307E-003	3.59960E-001	-1.08984E+000	3.57820E+000	10	...........
	25	0.346667	7.74491E-001	5.99033E-003	0.00000E+000	4.63945E-003	3.59960E-001	-1.09160E+000	3.57820E+000	10	...........
	26	0.36	7.80688E-001	5.99231E-003	0.00000E+000	4.67812E-003	3.59960E-001	-1.09914E+000	3.57820E+000	10	...........
	27	0.373333	7.86834E-001	5.99763E-003	0.00000E+000	4.71914E-003	3.59960E-001	-1.08979E+000	3.57820E+000	10	...........
	28	0.386667	7.92980E-001	5.99313E-003	0.00000E+000	4.75244E-003	3.59960E-001	-1.09137E+000	3.57820E+000	10	...........
	29	0.4	7.99122E-001	5.99117E-003	0.00000E+000	4.78768E-003	3.59960E-001	-1.09938E+000	3.57820E+000	10	...........
	30	0.413333	8.05232E-001	5.99698E-003	0.00000E+000	4.82896E-003	3.59960E-001	-1.09014E+000	3.57820E+000	10	...........
	31	0.426667	8.11308E-001	5.99371E-003	0.00000E+000	4.86274E-003	3.59960E-001	-1.09142E+000	3.57820E+000	10	...........
	32	0.44	8.17441E-001	5.99823E-003	0.00000E+000	4.90321E-003	3.59960E-001	-1.09908E+000	3.57820E+000	10	...........
	33	0.453333	8.23550E-001	5.99553E-003	0.00000E+000	4.93762E-003	3.59960E-001	-1.08968E+000	3.57820E+000	10	...........
	34	0.466667	8.29630E-001	5.99148E-003	0.00000E+000	4.97071E-003	3.59960E-001	-1.09108E+000	3.57820E+000	10	...........
	35	0.48	8.35693E-001	5.99483E-003	0.00000E+000	5.00984E-003	3.59960E-001	-1.09935E+000	3.57820E+000	10	...........
	36	0.493333	8.41783E-001	5.99707E-003	0.00000E+000	5.04823E-003	3.59960E-001	-1.09001E+000	3.57820E+000	10	...........
	37	0.506667	8.47884E-001	5.99157E-003	0.00000E+000	5.08016E-003	3.59960E-001	-1.09103E+000	3.57820E+000	10	...........
	38	0.52	8.53896E-001	5.98994E-003	0.00000E+000	5.11479E-003	3.59960E-001	-1.09941E+000	3.57820E+000	10	...........
	39	0.533333	8.59938E-001	5.99696E-003	0.00000E+000	5.15702E-003	3.59960E-001	-1.09007E+000	3.57820E+000	10	...........
	40	0.546667	8.65952E-001	5.99266E-003	0.00000E+000	5.18936E-003	3.59960E-001	-1.09101E+000	3.57820E+000	10	...........
	41	0.56	8.72008E-001	5.98966E-003	0.00000E+000	5.22303E-003	3.59960E-001	-1.09955E+000	3.57820E+000	10	...........
	42	0.573333	8.78024E-001	6.00266E-003	0.00000E+000	5.27048E-003	3.59960E-001	-1.09005E+000	3.57820E+000	10	...........
	43	0.586667	8.83994E-001	5.99574E-003	0.00000E+000	5.30020E-003	3.59960E-001	-1.09091E+000	3.57820E+000	10	...........
	44	0.6	8.89923E-001	5.99207E-003	0.00000E+000	5.33248E-003	3.59960E-001	-1.09957E+000	3.57820E+000	10	...........
	45	0.613333	8.95873E-001	5.99625E-003	0.00000E+000	5.37188E-003	3.59960E-001	-1.09017E+000	3.57820E+000	10	...........
	46	0.626667	9.01774E-001	5.99958E-003	0.00000E+000	5.41027E-003	3.59960E-001	-1.09071E+000	3.57872E+000	10	...........
	47	0.64	9.07690E-001	5.99136E-003	0.00000E+000	5.43830E-003	3.59960E-001	-1.09940E+000	3.58030E+000	10	...........
	48	0.653333	9.13573E-001	5.99283E-003	0.00000E+000	5.47489E-003	3.59960E-001	-1.09025E+000	3.58030E+000	10	...........
	49	0.666667	9.19442E-001	5.99131E-003	0.00000E+000	5.50866E-003	3.59960E-001	-1.09092E+000	3.58030E+000	10	...........
	50	0.68	9.25288E-001	5.99521E-003	0.00000E+000	5.54729E-003	3.59960E-001	-1.09969E+000	3.58030E+000	10	...........
	51	0.693333	9.31105E-001	5.99337E-003	0.00000E+000	5.58046E-003	3.59960E-001	-1.09024E+000	3.58030E+000	10	...........
	52	0.706667	9.36913E-001	5.99634E-003	0.00000E+000	5.61805E-003	3.59960E-001	-1.09045E+000	3.58030E+000	10	...........
	53	0.72	9.42664E-001	5.99348E-003	0.00000E+000	5.64984E-003	3.59960E-001	-1.09948E+000	3.58030E+000	10	...........
	54	0.733333	9.48402E-001	5.99568E-003	0.00000E+000	5.68632E-003	3.59960E-001	-1.08999E+000	3.58030E+000	10	...........
	55	0.746667	9.54092E-001	5.99716E-003	0.00000E+000	5.72184E-003	3.59960E-001	-1.09040E+000	3.58030E+000	10	...........
	56	0.76	9.59734E-001	5.99875E-003	0.00000E+000	5.75720E-003	3.59960E-001	-1.09913E+000	3.58030E+000	10	...........
	57	0.773333	9.65334E-001	5.99301E-003	0.00000E+000	5.78525E-003	3.59960E-001	-1.08969E+000	3.58030E+000	10	...........
	58	0.786667	9.70909E-001	5.99452E-003	0.00000E+000	5.82014E-003	3.59960E-001	-1.08976E+000	3.58030E+000	10	...........
	59	0.8	9.76492E-001	5.99381E-003	0.00000E+000	5.85291E-003	3.59960E-001	-1.09925E+000	3.58030E+000	10	...........
	60	0.813333	9.82002E-001	5.99878E-003	0.00000E+000	5.89081E-003	3.59960E-001	-1.08988E+000	3.58030E+000	10	...........
	61	0.826667	9.87437E-001	5.99123E-003	0.00000E+000	5.91596E-003	3.59960E-001	-1.08981E+000	3.58030E+000	10	...........
	62	0.84	9.92901E-001	5.99523E-003	0.00000E+000	5.95267E-003	3.59960E-001	-1.09916E+000	3.58030E+000	10	...........
	63	0.853333	9.98283E-001	5.99535E-003	0.00000E+000	5.98505E-003	3.59960E-001	-1.08988E+000	3.58030E+000	10	...........
STARTTIMEOFFSET	QUANT	420.8117	Start Time Offset (s)