Folder: Tesis/Data/CV_CRGO300517_1/PWRCCD_CRGO300517_1/CHARGE_DISCHARGE (part 26)

File: CHARGE_#51.DTA
EXPLAIN
TAG	PWR800_CHARGE
TITLE	LABEL	PWR Cyclic Charge Discharge (Cell) - Charge Step	Test &Identifier
DATE	LABEL	22-6-2017	Date
TIME	LABEL	15:37:19	Time
NOTES	NOTES	3	&Notes...
	supercap test cell
	0.6mg
	6M KOH
PSTAT	PSTAT	IFC5000-01520	Potentiostat
CAPACITY	QUANT	1.00000E-003	Capacity (A-hr)
CELLTYPE	SELECTOR	1	&Cell Type
WORKINGCONNECTION	SELECTOR	0	&Working Lead
MAXCHARGETIME	VARIABLEANDUNITS	1.00000E+002	s	1.00000E+002	second(s)	Max &Charge Time
CHARGECURRENT	QUANT	6.00000E-003	&Charge Current (A)
VOLTAGEFINISH	TWOPARAM	F	1.00000E-003	3.60000E+003	&Voltage Finish	 I (A) < 	Max Time(s)
SAMPLETIME	QUANT	1.00000E-002	Sa&mple Period (s)
CHARGESTOPAT1	MULTIPARAM	4	1.00000E+000	Charge Stop At &1	Voltage > Limit	V
CHARGESTOPAT2	MULTIPARAM	0	0.00000E+000	Charge Stop At &2	None	N/A
AESBHCSELECTOR	TOGGLE	F	Save Both Half Cells
IRCOMP	TOGGLE	F	IR &Measure
EOC	QUANT	0	Open Circuit (V)
SEQUENCER	TOGGLE	TRUE	Run as Sequence
PSTATMODEL	IQUANT	53	Pstat Model
PSTATSECTION	LABEL	IFC5000-01520	Pstat Section
PSTATSERIALNO	LABEL	01520	Pstat Serial Number
CTRLMODE	IQUANT	0	Control Mode
ELECTROMETER	IQUANT	1	RE=0 or CS=1
IESTAB	IQUANT	0	I/E Stability
CASPEED	IQUANT	4	Control Amp Speed
CONVENTION	IQUANT	1	Current Convention
ICHRANGE	IQUANT	2	Ich Range
ICHRANGEMODE	TOGGLE	T	Ich Auto Range
ICHOFFSETENABLE	TOGGLE	F	Ich Offset Enable
ICHOFFSET	QUANT	0	Ich Offset (V)
ICHFILTER	IQUANT	1	Ich Filter
VCHRANGE	IQUANT	2	Vch Range
VCHRANGEMODE	TOGGLE	T	Vch Auto Range
VCHOFFSETENABLE	TOGGLE	F	Vch Offset Enable
VCHOFFSET	QUANT	0	Vch Offset (V)
VCHFILTER	IQUANT	1	Vch Filter
IERANGELOWERLIMIT	IQUANT	9	I/E Range Lower Limit
IERANGEMODE	TOGGLE	F	I/E AutoRange
IERANGE	IQUANT	10	I/E Range
ACHSELECT	IQUANT	1	Ach Select
ACHRANGE	IQUANT	2	Ach Range
ACHOFFSETENABLE	TOGGLE	F	Ach Offset Enable
ACHOFFSET	QUANT	0	Ach Offset (V)
ACHFILTER	IQUANT	1	Ach Filter
CABLEID	IQUANT	14	Cable ID
DCCALDATE	LABEL	20-10-2016	DC Calibration Date
ACCALDATE	LABEL	12/3/2015	AC Calibration Date
FRAMEWORKVERSION	QUANT	7.01	Framework Version
INSTRUMENTVERSION	LABEL	4.00	Instrument Version
CURVE	TABLE	74
	Pt	T	Vf	Im	Vu	Pwr	Sig	Ach	Temp	IERange	Over
	#	s	V	A	V	W	V	V	deg C	#	bits
	0	0.013333	5.74726E-001	5.99641E-003	0.00000E+000	3.44629E-003	3.59960E-001	-1.04032E+000	3.57760E+000	10	...........
	1	0.026667	5.82845E-001	5.99874E-003	0.00000E+000	3.49633E-003	3.59960E-001	-1.03515E+000	3.57760E+000	10	...........
	2	0.04	5.90310E-001	5.99268E-003	0.00000E+000	3.53754E-003	3.59960E-001	-1.04640E+000	3.57760E+000	10	...........
	3	0.053333	5.97339E-001	5.99395E-003	0.00000E+000	3.58042E-003	3.59960E-001	-1.04049E+000	3.57760E+000	10	...........
	4	0.066667	6.04089E-001	5.99127E-003	0.00000E+000	3.61926E-003	3.59960E-001	-1.03507E+000	3.57760E+000	10	...........
	5	0.08	6.10619E-001	5.99515E-003	0.00000E+000	3.66075E-003	3.59960E-001	-1.04605E+000	3.57760E+000	10	...........
	6	0.093333	6.17119E-001	5.99543E-003	0.00000E+000	3.69989E-003	3.59960E-001	-1.04024E+000	3.57760E+000	10	...........
	7	0.106667	6.23436E-001	5.99671E-003	0.00000E+000	3.73857E-003	3.59960E-001	-1.03511E+000	3.57760E+000	10	...........
	8	0.12	6.29670E-001	5.99407E-003	0.00000E+000	3.77429E-003	3.59960E-001	-1.04623E+000	3.57760E+000	10	...........
	9	0.133333	6.35836E-001	5.99165E-003	0.00000E+000	3.80971E-003	3.59960E-001	-1.03993E+000	3.57760E+000	10	...........
	10	0.146667	6.41945E-001	5.99281E-003	0.00000E+000	3.84706E-003	3.59960E-001	-1.03482E+000	3.57760E+000	10	...........
	11	0.16	6.47968E-001	5.99219E-003	0.00000E+000	3.88274E-003	3.59960E-001	-1.04583E+000	3.57760E+000	10	...........
	12	0.173333	6.54005E-001	5.99545E-003	0.00000E+000	3.92105E-003	3.59960E-001	-1.04020E+000	3.57760E+000	10	...........
	13	0.186667	6.59968E-001	5.99410E-003	0.00000E+000	3.95592E-003	3.59960E-001	-1.03490E+000	3.57760E+000	10	...........
	14	0.2	6.65915E-001	5.99429E-003	0.00000E+000	3.99169E-003	3.59960E-001	-1.04574E+000	3.57760E+000	10	...........
	15	0.213333	6.71821E-001	5.99438E-003	0.00000E+000	4.02715E-003	3.59960E-001	-1.03979E+000	3.57760E+000	10	...........
	16	0.226667	6.77695E-001	5.99468E-003	0.00000E+000	4.06256E-003	3.59960E-001	-1.03474E+000	3.57760E+000	10	...........
	17	0.24	6.83566E-001	5.99328E-003	0.00000E+000	4.09680E-003	3.59960E-001	-1.04615E+000	3.57760E+000	10	...........
	18	0.253333	6.89417E-001	5.99337E-003	0.00000E+000	4.13193E-003	3.59960E-001	-1.04015E+000	3.57760E+000	10	...........
	19	0.266667	6.95238E-001	5.99207E-003	0.00000E+000	4.16591E-003	3.59960E-001	-1.03492E+000	3.57760E+000	10	...........
	20	0.28	7.01055E-001	5.99203E-003	0.00000E+000	4.20074E-003	3.59960E-001	-1.04604E+000	3.57760E+000	10	...........
	21	0.293333	7.06841E-001	5.99487E-003	0.00000E+000	4.23741E-003	3.59960E-001	-1.03993E+000	3.57760E+000	10	...........
	22	0.306667	7.12653E-001	5.99191E-003	0.00000E+000	4.27015E-003	3.59960E-001	-1.03493E+000	3.57760E+000	10	...........
	23	0.32	7.18455E-001	5.99644E-003	0.00000E+000	4.30817E-003	3.59960E-001	-1.04609E+000	3.57760E+000	10	...........
	24	0.333333	7.24245E-001	5.99350E-003	0.00000E+000	4.34076E-003	3.59960E-001	-1.03946E+000	3.57760E+000	10	...........
	25	0.346667	7.30015E-001	5.99225E-003	0.00000E+000	4.37443E-003	3.59960E-001	-1.03415E+000	3.57760E+000	10	...........
	26	0.36	7.35758E-001	5.99571E-003	0.00000E+000	4.41139E-003	3.59960E-001	-1.04542E+000	3.57760E+000	10	...........
	27	0.373333	7.41536E-001	5.99495E-003	0.00000E+000	4.44547E-003	3.59960E-001	-1.03958E+000	3.57760E+000	10	...........
	28	0.386667	7.47306E-001	5.99542E-003	0.00000E+000	4.48041E-003	3.59960E-001	-1.03441E+000	3.57760E+000	10	...........
	29	0.4	7.53051E-001	5.99580E-003	0.00000E+000	4.51515E-003	3.59960E-001	-1.04550E+000	3.57760E+000	10	...........
	30	0.413333	7.58806E-001	5.99358E-003	0.00000E+000	4.54797E-003	3.59960E-001	-1.03923E+000	3.57760E+000	10	...........
	31	0.426667	7.64566E-001	5.99265E-003	0.00000E+000	4.58178E-003	3.59960E-001	-1.03418E+000	3.57760E+000	10	...........
	32	0.44	7.70308E-001	5.99585E-003	0.00000E+000	4.61865E-003	3.59960E-001	-1.04552E+000	3.57760E+000	10	...........
	33	0.453333	7.76020E-001	5.99245E-003	0.00000E+000	4.65026E-003	3.59960E-001	-1.03972E+000	3.57760E+000	10	...........
	34	0.466667	7.81771E-001	5.99616E-003	0.00000E+000	4.68762E-003	3.59960E-001	-1.03436E+000	3.57760E+000	10	...........
	35	0.48	7.87507E-001	5.99246E-003	0.00000E+000	4.71910E-003	3.59960E-001	-1.04511E+000	3.57760E+000	10	...........
	36	0.493333	7.93268E-001	5.99292E-003	0.00000E+000	4.75399E-003	3.59960E-001	-1.03925E+000	3.57760E+000	10	...........
	37	0.506667	7.98992E-001	5.99624E-003	0.00000E+000	4.79095E-003	3.59960E-001	-1.03436E+000	3.57760E+000	10	...........
	38	0.52	8.04728E-001	5.99628E-003	0.00000E+000	4.82538E-003	3.59960E-001	-1.04549E+000	3.57760E+000	10	...........
	39	0.533333	8.10453E-001	5.99531E-003	0.00000E+000	4.85892E-003	3.59960E-001	-1.03928E+000	3.57760E+000	10	...........
	40	0.546667	8.16196E-001	5.99393E-003	0.00000E+000	4.89222E-003	3.59960E-001	-1.03422E+000	3.57760E+000	10	...........
	41	0.56	8.21957E-001	5.99404E-003	0.00000E+000	4.92684E-003	3.59960E-001	-1.04548E+000	3.57760E+000	10	...........
	42	0.573333	8.27712E-001	5.99453E-003	0.00000E+000	4.96174E-003	3.59960E-001	-1.03949E+000	3.57760E+000	10	...........
	43	0.586667	8.33442E-001	5.99591E-003	0.00000E+000	4.99725E-003	3.59960E-001	-1.03438E+000	3.57760E+000	10	...........
	44	0.6	8.39143E-001	5.99256E-003	0.00000E+000	5.02862E-003	3.59960E-001	-1.04559E+000	3.57760E+000	10	...........
	45	0.613333	8.44905E-001	5.99365E-003	0.00000E+000	5.06406E-003	3.59960E-001	-1.03943E+000	3.57760E+000	10	...........
	46	0.626667	8.50599E-001	5.99492E-003	0.00000E+000	5.09927E-003	3.59960E-001	-1.03417E+000	3.57760E+000	10	...........
	47	0.64	8.56326E-001	5.99172E-003	0.00000E+000	5.13086E-003	3.59960E-001	-1.04553E+000	3.57760E+000	10	...........
	48	0.653333	8.62042E-001	5.99602E-003	0.00000E+000	5.16882E-003	3.59960E-001	-1.03924E+000	3.57760E+000	10	...........
	49	0.666667	8.67743E-001	5.99575E-003	0.00000E+000	5.20277E-003	3.59960E-001	-1.03374E+000	3.57760E+000	10	...........
	50	0.68	8.73492E-001	5.99726E-003	0.00000E+000	5.23856E-003	3.59960E-001	-1.04475E+000	3.57760E+000	10	...........
	51	0.693333	8.79163E-001	5.99401E-003	0.00000E+000	5.26971E-003	3.59960E-001	-1.03899E+000	3.57760E+000	10	...........
	52	0.706667	8.84868E-001	5.99378E-003	0.00000E+000	5.30370E-003	3.59960E-001	-1.03398E+000	3.57760E+000	10	...........
	53	0.72	8.90537E-001	5.99285E-003	0.00000E+000	5.33686E-003	3.59960E-001	-1.04520E+000	3.57760E+000	10	...........
	54	0.733333	8.96209E-001	5.99572E-003	0.00000E+000	5.37342E-003	3.59960E-001	-1.03895E+000	3.57760E+000	10	...........
	55	0.746667	9.01869E-001	5.99530E-003	0.00000E+000	5.40698E-003	3.59960E-001	-1.03382E+000	3.57760E+000	10	...........
	56	0.76	9.07486E-001	5.99134E-003	0.00000E+000	5.43706E-003	3.59960E-001	-1.04472E+000	3.57760E+000	10	...........
	57	0.773333	9.13123E-001	5.99443E-003	0.00000E+000	5.47365E-003	3.59960E-001	-1.03882E+000	3.57760E+000	10	...........
	58	0.786667	9.18774E-001	5.99139E-003	0.00000E+000	5.50474E-003	3.59960E-001	-1.03377E+000	3.57760E+000	10	...........
	59	0.8	9.24446E-001	5.99382E-003	0.00000E+000	5.54097E-003	3.59960E-001	-1.04491E+000	3.57760E+000	10	...........
	60	0.813333	9.30007E-001	5.99501E-003	0.00000E+000	5.57540E-003	3.59960E-001	-1.03871E+000	3.57760E+000	10	...........
	61	0.826667	9.35563E-001	5.99248E-003	0.00000E+000	5.60634E-003	3.59960E-001	-1.03363E+000	3.57760E+000	10	...........
	62	0.84	9.41087E-001	5.99162E-003	0.00000E+000	5.63864E-003	3.59960E-001	-1.04484E+000	3.57760E+000	10	...........
	63	0.853333	9.46627E-001	5.99586E-003	0.00000E+000	5.67584E-003	3.59960E-001	-1.03926E+000	3.57760E+000	10	...........
	64	0.866667	9.52160E-001	5.99556E-003	0.00000E+000	5.70874E-003	3.59960E-001	-1.03370E+000	3.57760E+000	10	...........
	65	0.88	9.57671E-001	5.99163E-003	0.00000E+000	5.73801E-003	3.59960E-001	-1.04492E+000	3.57760E+000	10	...........
	66	0.893333	9.63135E-001	5.99432E-003	0.00000E+000	5.77334E-003	3.59960E-001	-1.03895E+000	3.57760E+000	10	...........
	67	0.906667	9.68554E-001	5.99065E-003	0.00000E+000	5.80227E-003	3.59960E-001	-1.03410E+000	3.57760E+000	10	...........
	68	0.92	9.74012E-001	5.99287E-003	0.00000E+000	5.83713E-003	3.59960E-001	-1.04520E+000	3.57760E+000	10	...........
	69	0.933333	9.79438E-001	5.99191E-003	0.00000E+000	5.86871E-003	3.59960E-001	-1.03912E+000	3.57760E+000	10	...........
	70	0.946667	9.84787E-001	5.99408E-003	0.00000E+000	5.90290E-003	3.59960E-001	-1.03398E+000	3.57760E+000	10	...........
	71	0.96	9.90104E-001	5.99358E-003	0.00000E+000	5.93427E-003	3.59960E-001	-1.04510E+000	3.57760E+000	10	...........
	72	0.97333	9.95412E-001	5.99404E-003	0.00000E+000	5.96654E-003	3.59960E-001	-1.03883E+000	3.57760E+000	10	...........
	73	0.98	9.99374E-001	5.99342E-003	0.00000E+000	5.98966E-003	3.59960E-001	-1.03979E+000	3.57760E+000	10	...........
STARTTIMEOFFSET	QUANT	102.5	Start Time Offset (s)

File: CHARGE_#52.DTA
EXPLAIN
TAG	PWR800_CHARGE
TITLE	LABEL	PWR Cyclic Charge Discharge (Cell) - Charge Step	Test &Identifier
DATE	LABEL	22-6-2017	Date
TIME	LABEL	15:37:21	Time
NOTES	NOTES	3	&Notes...
	supercap test cell
	0.6mg
	6M KOH
PSTAT	PSTAT	IFC5000-01520	Potentiostat
CAPACITY	QUANT	1.00000E-003	Capacity (A-hr)
CELLTYPE	SELECTOR	1	&Cell Type
WORKINGCONNECTION	SELECTOR	0	&Working Lead
MAXCHARGETIME	VARIABLEANDUNITS	1.00000E+002	s	1.00000E+002	second(s)	Max &Charge Time
CHARGECURRENT	QUANT	6.00000E-003	&Charge Current (A)
VOLTAGEFINISH	TWOPARAM	F	1.00000E-003	3.60000E+003	&Voltage Finish	 I (A) < 	Max Time(s)
SAMPLETIME	QUANT	1.00000E-002	Sa&mple Period (s)
CHARGESTOPAT1	MULTIPARAM	4	1.00000E+000	Charge Stop At &1	Voltage > Limit	V
CHARGESTOPAT2	MULTIPARAM	0	0.00000E+000	Charge Stop At &2	None	N/A
AESBHCSELECTOR	TOGGLE	F	Save Both Half Cells
IRCOMP	TOGGLE	F	IR &Measure
EOC	QUANT	0	Open Circuit (V)
SEQUENCER	TOGGLE	TRUE	Run as Sequence
PSTATMODEL	IQUANT	53	Pstat Model
PSTATSECTION	LABEL	IFC5000-01520	Pstat Section
PSTATSERIALNO	LABEL	01520	Pstat Serial Number
CTRLMODE	IQUANT	0	Control Mode
ELECTROMETER	IQUANT	1	RE=0 or CS=1
IESTAB	IQUANT	0	I/E Stability
CASPEED	IQUANT	4	Control Amp Speed
CONVENTION	IQUANT	1	Current Convention
ICHRANGE	IQUANT	2	Ich Range
ICHRANGEMODE	TOGGLE	T	Ich Auto Range
ICHOFFSETENABLE	TOGGLE	F	Ich Offset Enable
ICHOFFSET	QUANT	0	Ich Offset (V)
ICHFILTER	IQUANT	1	Ich Filter
VCHRANGE	IQUANT	2	Vch Range
VCHRANGEMODE	TOGGLE	T	Vch Auto Range
VCHOFFSETENABLE	TOGGLE	F	Vch Offset Enable
VCHOFFSET	QUANT	0	Vch Offset (V)
VCHFILTER	IQUANT	1	Vch Filter
IERANGELOWERLIMIT	IQUANT	9	I/E Range Lower Limit
IERANGEMODE	TOGGLE	F	I/E AutoRange
IERANGE	IQUANT	10	I/E Range
ACHSELECT	IQUANT	1	Ach Select
ACHRANGE	IQUANT	2	Ach Range
ACHOFFSETENABLE	TOGGLE	F	Ach Offset Enable
ACHOFFSET	QUANT	0	Ach Offset (V)
ACHFILTER	IQUANT	1	Ach Filter
CABLEID	IQUANT	14	Cable ID
DCCALDATE	LABEL	20-10-2016	DC Calibration Date
ACCALDATE	LABEL	12/3/2015	AC Calibration Date
FRAMEWORKVERSION	QUANT	7.01	Framework Version
INSTRUMENTVERSION	LABEL	4.00	Instrument Version
CURVE	TABLE	74
	Pt	T	Vf	Im	Vu	Pwr	Sig	Ach	Temp	IERange	Over
	#	s	V	A	V	W	V	V	deg C	#	bits
	0	0.013333	5.74884E-001	5.99235E-003	0.00000E+000	3.44491E-003	3.59960E-001	-1.04900E+000	3.57850E+000	10	...........
	1	0.026667	5.83016E-001	5.99304E-003	0.00000E+000	3.49404E-003	3.59960E-001	-1.04013E+000	3.57850E+000	10	...........
	2	0.04	5.90463E-001	5.99400E-003	0.00000E+000	3.53923E-003	3.59960E-001	-1.03678E+000	3.57850E+000	10	...........
	3	0.053333	5.97506E-001	5.99365E-003	0.00000E+000	3.58124E-003	3.59960E-001	-1.04920E+000	3.57850E+000	10	...........
	4	0.066667	6.04269E-001	5.99580E-003	0.00000E+000	3.62308E-003	3.59960E-001	-1.04043E+000	3.57850E+000	10	...........
	5	0.08	6.10799E-001	5.99191E-003	0.00000E+000	3.65985E-003	3.59960E-001	-1.03695E+000	3.57850E+000	10	...........
	6	0.093333	6.17354E-001	5.99046E-003	0.00000E+000	3.69824E-003	3.59960E-001	-1.04899E+000	3.57850E+000	10	...........
	7	0.106667	6.23634E-001	5.99310E-003	0.00000E+000	3.73750E-003	3.59960E-001	-1.04024E+000	3.57850E+000	10	...........
	8	0.12	6.29882E-001	5.99611E-003	0.00000E+000	3.77684E-003	3.59960E-001	-1.03695E+000	3.57850E+000	10	...........
	9	0.133333	6.36033E-001	5.99266E-003	0.00000E+000	3.81153E-003	3.59960E-001	-1.04915E+000	3.57850E+000	10	...........
	10	0.146667	6.42155E-001	5.99501E-003	0.00000E+000	3.84973E-003	3.59960E-001	-1.04016E+000	3.57850E+000	10	...........
	11	0.16	6.48140E-001	5.99188E-003	0.00000E+000	3.88358E-003	3.59960E-001	-1.03656E+000	3.57850E+000	10	...........
	12	0.173333	6.54185E-001	5.99416E-003	0.00000E+000	3.92129E-003	3.59960E-001	-1.04848E+000	3.57850E+000	10	...........
	13	0.186667	6.60145E-001	5.99286E-003	0.00000E+000	3.95616E-003	3.59960E-001	-1.03986E+000	3.57850E+000	10	...........
	14	0.2	6.66072E-001	5.99346E-003	0.00000E+000	3.99207E-003	3.59960E-001	-1.03650E+000	3.57850E+000	10	...........
	15	0.213333	6.71990E-001	5.98941E-003	0.00000E+000	4.02483E-003	3.59960E-001	-1.04837E+000	3.57850E+000	10	...........
	16	0.226667	6.77887E-001	5.99699E-003	0.00000E+000	4.06529E-003	3.59960E-001	-1.03954E+000	3.57850E+000	10	...........
	17	0.24	6.83736E-001	5.99272E-003	0.00000E+000	4.09744E-003	3.59960E-001	-1.03644E+000	3.57850E+000	10	...........
	18	0.253333	6.89543E-001	5.99296E-003	0.00000E+000	4.13240E-003	3.59960E-001	-1.04852E+000	3.57850E+000	10	...........
	19	0.266667	6.95354E-001	5.99187E-003	0.00000E+000	4.16647E-003	3.59960E-001	-1.03979E+000	3.57850E+000	10	...........
	20	0.28	7.01177E-001	6.00055E-003	0.00000E+000	4.20745E-003	3.59960E-001	-1.03610E+000	3.57781E+000	10	...........
	21	0.293333	7.06993E-001	6.00073E-003	0.00000E+000	4.24247E-003	3.59960E-001	-1.04822E+000	3.57740E+000	10	...........
	22	0.306667	7.12799E-001	5.99419E-003	0.00000E+000	4.27265E-003	3.59960E-001	-1.03937E+000	3.57740E+000	10	...........
	23	0.32	7.18639E-001	5.99736E-003	0.00000E+000	4.30993E-003	3.59960E-001	-1.03640E+000	3.57740E+000	10	...........
	24	0.333333	7.24407E-001	5.99559E-003	0.00000E+000	4.34324E-003	3.59960E-001	-1.04839E+000	3.57740E+000	10	...........
	25	0.346667	7.30177E-001	5.99396E-003	0.00000E+000	4.37665E-003	3.59960E-001	-1.03954E+000	3.57740E+000	10	...........
	26	0.36	7.35906E-001	5.99300E-003	0.00000E+000	4.41029E-003	3.59960E-001	-1.03583E+000	3.57740E+000	10	...........
	27	0.373333	7.41660E-001	5.99493E-003	0.00000E+000	4.44620E-003	3.59960E-001	-1.04828E+000	3.57740E+000	10	...........
	28	0.386667	7.47461E-001	5.99334E-003	0.00000E+000	4.47979E-003	3.59960E-001	-1.03979E+000	3.57740E+000	10	...........
	29	0.4	7.53200E-001	5.99081E-003	0.00000E+000	4.51228E-003	3.59960E-001	-1.03633E+000	3.57740E+000	10	...........
	30	0.413333	7.58980E-001	5.99100E-003	0.00000E+000	4.54705E-003	3.59960E-001	-1.04847E+000	3.57740E+000	10	...........
	31	0.426667	7.64722E-001	5.99442E-003	0.00000E+000	4.58406E-003	3.59960E-001	-1.03960E+000	3.57740E+000	10	...........
	32	0.44	7.70482E-001	5.99410E-003	0.00000E+000	4.61835E-003	3.59960E-001	-1.03610E+000	3.57740E+000	10	...........
	33	0.453333	7.76227E-001	5.99438E-003	0.00000E+000	4.65300E-003	3.59960E-001	-1.04845E+000	3.57740E+000	10	...........
	34	0.466667	7.81980E-001	5.99635E-003	0.00000E+000	4.68902E-003	3.59960E-001	-1.03972E+000	3.57740E+000	10	...........
	35	0.48	7.87762E-001	5.99402E-003	0.00000E+000	4.72186E-003	3.59960E-001	-1.03606E+000	3.57740E+000	10	...........
	36	0.493333	7.93525E-001	5.99060E-003	0.00000E+000	4.75369E-003	3.59960E-001	-1.04775E+000	3.57740E+000	10	...........
	37	0.506667	7.99276E-001	5.99143E-003	0.00000E+000	4.78881E-003	3.59960E-001	-1.03930E+000	3.57740E+000	10	...........
	38	0.52	8.05029E-001	5.99536E-003	0.00000E+000	4.82644E-003	3.59960E-001	-1.03569E+000	3.57740E+000	10	...........
	39	0.533333	8.10765E-001	5.99537E-003	0.00000E+000	4.86083E-003	3.59960E-001	-1.04797E+000	3.57740E+000	10	...........
	40	0.546667	8.16482E-001	5.99319E-003	0.00000E+000	4.89333E-003	3.59960E-001	-1.03913E+000	3.57740E+000	10	...........
	41	0.56	8.22242E-001	5.99329E-003	0.00000E+000	4.92794E-003	3.59960E-001	-1.03547E+000	3.57740E+000	10	...........
	42	0.573333	8.27952E-001	5.99307E-003	0.00000E+000	4.96197E-003	3.59960E-001	-1.04782E+000	3.57740E+000	10	...........
	43	0.586667	8.33680E-001	5.99342E-003	0.00000E+000	4.99659E-003	3.59960E-001	-1.03937E+000	3.57740E+000	10	...........
	44	0.6	8.39382E-001	5.99228E-003	0.00000E+000	5.02981E-003	3.59960E-001	-1.03578E+000	3.57740E+000	10	...........
	45	0.613333	8.45124E-001	5.99083E-003	0.00000E+000	5.06300E-003	3.59960E-001	-1.04778E+000	3.57740E+000	10	...........
	46	0.626667	8.50849E-001	5.99154E-003	0.00000E+000	5.09789E-003	3.59960E-001	-1.03924E+000	3.57740E+000	10	...........
	47	0.64	8.56570E-001	5.99345E-003	0.00000E+000	5.13381E-003	3.59960E-001	-1.03545E+000	3.57740E+000	10	...........
	48	0.653333	8.62281E-001	5.99058E-003	0.00000E+000	5.16556E-003	3.59960E-001	-1.04787E+000	3.57740E+000	10	...........
	49	0.666667	8.68016E-001	5.99413E-003	0.00000E+000	5.20300E-003	3.59960E-001	-1.03941E+000	3.57740E+000	10	...........
	50	0.68	8.73732E-001	5.99249E-003	0.00000E+000	5.23583E-003	3.59960E-001	-1.03550E+000	3.57740E+000	10	...........
	51	0.693333	8.79413E-001	5.99464E-003	0.00000E+000	5.27176E-003	3.59960E-001	-1.04752E+000	3.57740E+000	10	...........
	52	0.706667	8.85160E-001	5.99475E-003	0.00000E+000	5.30632E-003	3.59960E-001	-1.03951E+000	3.57740E+000	10	...........
	53	0.72	8.90787E-001	5.99343E-003	0.00000E+000	5.33887E-003	3.59960E-001	-1.03581E+000	3.57740E+000	10	...........
	54	0.733333	8.96468E-001	5.99532E-003	0.00000E+000	5.37462E-003	3.59960E-001	-1.04793E+000	3.57740E+000	10	...........
	55	0.746667	9.02162E-001	5.99567E-003	0.00000E+000	5.40906E-003	3.59960E-001	-1.03955E+000	3.57740E+000	10	...........
	56	0.76	9.07831E-001	5.99715E-003	0.00000E+000	5.44440E-003	3.59960E-001	-1.03567E+000	3.57740E+000	10	...........
	57	0.773333	9.13442E-001	5.99697E-003	0.00000E+000	5.47789E-003	3.59960E-001	-1.04779E+000	3.57740E+000	10	...........
	58	0.786667	9.19037E-001	5.98972E-003	0.00000E+000	5.50477E-003	3.59960E-001	-1.03964E+000	3.57740E+000	10	...........
	59	0.8	9.24722E-001	5.99213E-003	0.00000E+000	5.54106E-003	3.59960E-001	-1.03577E+000	3.57740E+000	10	...........
	60	0.813333	9.30292E-001	5.99670E-003	0.00000E+000	5.57868E-003	3.59960E-001	-1.04729E+000	3.57740E+000	10	...........
	61	0.826667	9.35845E-001	5.99548E-003	0.00000E+000	5.61084E-003	3.59960E-001	-1.03896E+000	3.57740E+000	10	...........
	62	0.84	9.41332E-001	5.99306E-003	0.00000E+000	5.64146E-003	3.59960E-001	-1.03520E+000	3.57740E+000	10	...........
	63	0.853333	9.46927E-001	5.99424E-003	0.00000E+000	5.67611E-003	3.59960E-001	-1.04731E+000	3.57740E+000	10	...........
	64	0.866667	9.52479E-001	5.99224E-003	0.00000E+000	5.70748E-003	3.59960E-001	-1.03930E+000	3.57740E+000	10	...........
	65	0.88	9.57957E-001	5.99327E-003	0.00000E+000	5.74130E-003	3.59960E-001	-1.03501E+000	3.57740E+000	10	...........
	66	0.893333	9.63355E-001	5.99519E-003	0.00000E+000	5.77550E-003	3.59960E-001	-1.04717E+000	3.57740E+000	10	...........
	67	0.906667	9.68800E-001	5.99062E-003	0.00000E+000	5.80371E-003	3.59960E-001	-1.03906E+000	3.57740E+000	10	...........
	68	0.92	9.74242E-001	5.99392E-003	0.00000E+000	5.83952E-003	3.59960E-001	-1.03506E+000	3.57740E+000	10	...........
	69	0.933333	9.79640E-001	5.99410E-003	0.00000E+000	5.87207E-003	3.59960E-001	-1.04710E+000	3.57740E+000	10	...........
	70	0.946667	9.85001E-001	5.99301E-003	0.00000E+000	5.90312E-003	3.59960E-001	-1.03902E+000	3.57740E+000	10	...........
	71	0.96	9.90300E-001	5.99784E-003	0.00000E+000	5.93966E-003	3.59960E-001	-1.03503E+000	3.57740E+000	10	...........
	72	0.97333	9.95602E-001	5.99197E-003	0.00000E+000	5.96562E-003	3.59960E-001	-1.04704E+000	3.57740E+000	10	...........
	73	0.98	9.99564E-001	5.99719E-003	0.00000E+000	5.99458E-003	3.59960E-001	-1.02742E+000	3.57740E+000	10	...........
STARTTIMEOFFSET	QUANT	104.4467	Start Time Offset (s)