Folder: Tesis/Data/CV_CRGO300517_1/PWRCCD_CRGO300517_1/CHARGE_DISCHARGE (part 34)

File: CHARGE_#67.DTA
EXPLAIN
TAG	PWR800_CHARGE
TITLE	LABEL	PWR Cyclic Charge Discharge (Cell) - Charge Step	Test &Identifier
DATE	LABEL	22-6-2017	Date
TIME	LABEL	15:38:02	Time
NOTES	NOTES	3	&Notes...
	supercap test cell
	0.6mg
	6M KOH
PSTAT	PSTAT	IFC5000-01520	Potentiostat
CAPACITY	QUANT	1.00000E-003	Capacity (A-hr)
CELLTYPE	SELECTOR	1	&Cell Type
WORKINGCONNECTION	SELECTOR	0	&Working Lead
MAXCHARGETIME	VARIABLEANDUNITS	1.00000E+002	s	1.00000E+002	second(s)	Max &Charge Time
CHARGECURRENT	QUANT	6.00000E-003	&Charge Current (A)
VOLTAGEFINISH	TWOPARAM	F	1.00000E-003	3.60000E+003	&Voltage Finish	 I (A) < 	Max Time(s)
SAMPLETIME	QUANT	1.00000E-002	Sa&mple Period (s)
CHARGESTOPAT1	MULTIPARAM	4	1.00000E+000	Charge Stop At &1	Voltage > Limit	V
CHARGESTOPAT2	MULTIPARAM	0	0.00000E+000	Charge Stop At &2	None	N/A
AESBHCSELECTOR	TOGGLE	F	Save Both Half Cells
IRCOMP	TOGGLE	F	IR &Measure
EOC	QUANT	0	Open Circuit (V)
SEQUENCER	TOGGLE	TRUE	Run as Sequence
PSTATMODEL	IQUANT	53	Pstat Model
PSTATSECTION	LABEL	IFC5000-01520	Pstat Section
PSTATSERIALNO	LABEL	01520	Pstat Serial Number
CTRLMODE	IQUANT	0	Control Mode
ELECTROMETER	IQUANT	1	RE=0 or CS=1
IESTAB	IQUANT	0	I/E Stability
CASPEED	IQUANT	4	Control Amp Speed
CONVENTION	IQUANT	1	Current Convention
ICHRANGE	IQUANT	2	Ich Range
ICHRANGEMODE	TOGGLE	T	Ich Auto Range
ICHOFFSETENABLE	TOGGLE	F	Ich Offset Enable
ICHOFFSET	QUANT	0	Ich Offset (V)
ICHFILTER	IQUANT	1	Ich Filter
VCHRANGE	IQUANT	2	Vch Range
VCHRANGEMODE	TOGGLE	T	Vch Auto Range
VCHOFFSETENABLE	TOGGLE	F	Vch Offset Enable
VCHOFFSET	QUANT	0	Vch Offset (V)
VCHFILTER	IQUANT	1	Vch Filter
IERANGELOWERLIMIT	IQUANT	9	I/E Range Lower Limit
IERANGEMODE	TOGGLE	F	I/E AutoRange
IERANGE	IQUANT	10	I/E Range
ACHSELECT	IQUANT	1	Ach Select
ACHRANGE	IQUANT	2	Ach Range
ACHOFFSETENABLE	TOGGLE	F	Ach Offset Enable
ACHOFFSET	QUANT	0	Ach Offset (V)
ACHFILTER	IQUANT	1	Ach Filter
CABLEID	IQUANT	14	Cable ID
DCCALDATE	LABEL	20-10-2016	DC Calibration Date
ACCALDATE	LABEL	12/3/2015	AC Calibration Date
FRAMEWORKVERSION	QUANT	7.01	Framework Version
INSTRUMENTVERSION	LABEL	4.00	Instrument Version
CURVE	TABLE	72
	Pt	T	Vf	Im	Vu	Pwr	Sig	Ach	Temp	IERange	Over
	#	s	V	A	V	W	V	V	deg C	#	bits
	0	0.013333	5.80060E-001	5.99307E-003	0.00000E+000	3.47634E-003	3.59960E-001	-1.05439E+000	3.57850E+000	10	...........
	1	0.026667	5.88244E-001	5.99530E-003	0.00000E+000	3.52670E-003	3.59960E-001	-1.05352E+000	3.57850E+000	10	...........
	2	0.04	5.95703E-001	5.99440E-003	0.00000E+000	3.57088E-003	3.59960E-001	-1.04587E+000	3.57850E+000	10	...........
	3	0.053333	6.02746E-001	5.99652E-003	0.00000E+000	3.61438E-003	3.59960E-001	-1.05444E+000	3.57850E+000	10	...........
	4	0.066667	6.09532E-001	5.99505E-003	0.00000E+000	3.65418E-003	3.59960E-001	-1.05403E+000	3.57850E+000	10	...........
	5	0.08	6.16235E-001	5.99526E-003	0.00000E+000	3.69449E-003	3.59960E-001	-1.04610E+000	3.57850E+000	10	...........
	6	0.093333	6.22696E-001	5.99644E-003	0.00000E+000	3.73396E-003	3.59960E-001	-1.05403E+000	3.57850E+000	10	...........
	7	0.106667	6.29038E-001	5.99602E-003	0.00000E+000	3.77173E-003	3.59960E-001	-1.05387E+000	3.57850E+000	10	...........
	8	0.12	6.35329E-001	5.99516E-003	0.00000E+000	3.80890E-003	3.59960E-001	-1.04584E+000	3.57850E+000	10	...........
	9	0.133333	6.41545E-001	5.99279E-003	0.00000E+000	3.84465E-003	3.59960E-001	-1.05387E+000	3.57850E+000	10	...........
	10	0.146667	6.47675E-001	5.99027E-003	0.00000E+000	3.87975E-003	3.59960E-001	-1.05373E+000	3.57850E+000	10	...........
	11	0.16	6.53801E-001	5.99358E-003	0.00000E+000	3.91861E-003	3.59960E-001	-1.04539E+000	3.57850E+000	10	...........
	12	0.173333	6.59836E-001	5.99817E-003	0.00000E+000	3.95781E-003	3.59960E-001	-1.05314E+000	3.57850E+000	10	...........
	13	0.186667	6.65859E-001	5.99332E-003	0.00000E+000	3.99071E-003	3.59960E-001	-1.05365E+000	3.57850E+000	10	...........
	14	0.2	6.71851E-001	5.99265E-003	0.00000E+000	4.02617E-003	3.59960E-001	-1.04546E+000	3.57850E+000	10	...........
	15	0.213333	6.77826E-001	5.99336E-003	0.00000E+000	4.06246E-003	3.59960E-001	-1.05310E+000	3.57850E+000	10	...........
	16	0.226667	6.83748E-001	5.99322E-003	0.00000E+000	4.09785E-003	3.59960E-001	-1.05369E+000	3.57850E+000	10	...........
	17	0.24	6.89649E-001	5.99197E-003	0.00000E+000	4.13235E-003	3.59960E-001	-1.04517E+000	3.57850E+000	10	...........
	18	0.253333	6.95558E-001	5.99271E-003	0.00000E+000	4.16827E-003	3.59960E-001	-1.05274E+000	3.57850E+000	10	...........
	19	0.266667	7.01437E-001	5.99517E-003	0.00000E+000	4.20523E-003	3.59960E-001	-1.05413E+000	3.57850E+000	10	...........
	20	0.28	7.07307E-001	5.99264E-003	0.00000E+000	4.23864E-003	3.59960E-001	-1.04554E+000	3.57850E+000	10	...........
	21	0.293333	7.13160E-001	5.99156E-003	0.00000E+000	4.27294E-003	3.59960E-001	-1.05275E+000	3.57850E+000	10	...........
	22	0.306667	7.19033E-001	5.99400E-003	0.00000E+000	4.30988E-003	3.59960E-001	-1.05377E+000	3.57850E+000	10	...........
	23	0.32	7.24860E-001	5.99476E-003	0.00000E+000	4.34536E-003	3.59960E-001	-1.04513E+000	3.57850E+000	10	...........
	24	0.333333	7.30666E-001	5.99513E-003	0.00000E+000	4.38043E-003	3.59960E-001	-1.05245E+000	3.57850E+000	10	...........
	25	0.346667	7.36482E-001	5.99314E-003	0.00000E+000	4.41384E-003	3.59960E-001	-1.05406E+000	3.57850E+000	10	...........
	26	0.36	7.42296E-001	5.99230E-003	0.00000E+000	4.44806E-003	3.59960E-001	-1.04528E+000	3.57850E+000	10	...........
	27	0.373333	7.48126E-001	5.99538E-003	0.00000E+000	4.48530E-003	3.59960E-001	-1.05232E+000	3.57850E+000	10	...........
	28	0.386667	7.53988E-001	5.99372E-003	0.00000E+000	4.51919E-003	3.59960E-001	-1.05407E+000	3.57850E+000	10	...........
	29	0.4	7.59811E-001	5.98965E-003	0.00000E+000	4.55100E-003	3.59960E-001	-1.04547E+000	3.57850E+000	10	...........
	30	0.413333	7.65546E-001	5.99473E-003	0.00000E+000	4.58924E-003	3.59960E-001	-1.05233E+000	3.57850E+000	10	...........
	31	0.426667	7.71396E-001	5.99212E-003	0.00000E+000	4.62230E-003	3.59960E-001	-1.05442E+000	3.57850E+000	10	...........
	32	0.44	7.77204E-001	5.99139E-003	0.00000E+000	4.65653E-003	3.59960E-001	-1.04524E+000	3.57850E+000	10	...........
	33	0.453333	7.83015E-001	5.99435E-003	0.00000E+000	4.69367E-003	3.59960E-001	-1.05198E+000	3.57850E+000	10	...........
	34	0.466667	7.88765E-001	5.99132E-003	0.00000E+000	4.72574E-003	3.59960E-001	-1.05407E+000	3.57850E+000	10	...........
	35	0.48	7.94616E-001	5.99394E-003	0.00000E+000	4.76288E-003	3.59960E-001	-1.04508E+000	3.57850E+000	10	...........
	36	0.493333	8.00434E-001	5.99569E-003	0.00000E+000	4.79915E-003	3.59960E-001	-1.05130E+000	3.57850E+000	10	...........
	37	0.506667	8.06224E-001	5.99453E-003	0.00000E+000	4.83293E-003	3.59960E-001	-1.05398E+000	3.57850E+000	10	...........
	38	0.52	8.12019E-001	5.99246E-003	0.00000E+000	4.86599E-003	3.59960E-001	-1.04495E+000	3.57850E+000	10	...........
	39	0.533333	8.17794E-001	5.99367E-003	0.00000E+000	4.90159E-003	3.59960E-001	-1.05126E+000	3.57783E+000	10	...........
	40	0.546667	8.23600E-001	5.99709E-003	0.00000E+000	4.93920E-003	3.59960E-001	-1.05449E+000	3.57770E+000	10	...........
	41	0.56	8.29402E-001	5.99670E-003	0.00000E+000	4.97368E-003	3.59960E-001	-1.04483E+000	3.57770E+000	10	...........
	42	0.573333	8.35124E-001	5.99494E-003	0.00000E+000	5.00652E-003	3.59960E-001	-1.05078E+000	3.57770E+000	10	...........
	43	0.586667	8.40884E-001	5.99314E-003	0.00000E+000	5.03954E-003	3.59960E-001	-1.05453E+000	3.57770E+000	10	...........
	44	0.6	8.46697E-001	5.99222E-003	0.00000E+000	5.07359E-003	3.59960E-001	-1.04513E+000	3.57770E+000	10	...........
	45	0.613333	8.52443E-001	5.99435E-003	0.00000E+000	5.10985E-003	3.59960E-001	-1.05102E+000	3.57770E+000	10	...........
	46	0.626667	8.58230E-001	5.99556E-003	0.00000E+000	5.14558E-003	3.59960E-001	-1.05462E+000	3.57770E+000	10	...........
	47	0.64	8.64006E-001	5.99582E-003	0.00000E+000	5.18042E-003	3.59960E-001	-1.04477E+000	3.57770E+000	10	...........
	48	0.653333	8.69758E-001	5.99348E-003	0.00000E+000	5.21288E-003	3.59960E-001	-1.05052E+000	3.57770E+000	10	...........
	49	0.666667	8.75470E-001	5.99331E-003	0.00000E+000	5.24697E-003	3.59960E-001	-1.05481E+000	3.57770E+000	10	...........
	50	0.68	8.81215E-001	5.99305E-003	0.00000E+000	5.28117E-003	3.59960E-001	-1.04531E+000	3.57770E+000	10	...........
	51	0.693333	8.86927E-001	5.99374E-003	0.00000E+000	5.31601E-003	3.59960E-001	-1.05075E+000	3.57770E+000	10	...........
	52	0.706667	8.92624E-001	5.99719E-003	0.00000E+000	5.35324E-003	3.59960E-001	-1.05493E+000	3.57770E+000	10	...........
	53	0.72	8.98363E-001	5.99408E-003	0.00000E+000	5.38486E-003	3.59960E-001	-1.04544E+000	3.57770E+000	10	...........
	54	0.733333	9.04019E-001	5.99087E-003	0.00000E+000	5.41586E-003	3.59960E-001	-1.05069E+000	3.57770E+000	10	...........
	55	0.746667	9.09706E-001	5.99666E-003	0.00000E+000	5.45519E-003	3.59960E-001	-1.05512E+000	3.57770E+000	10	...........
	56	0.76	9.15360E-001	5.99049E-003	0.00000E+000	5.48345E-003	3.59960E-001	-1.04530E+000	3.57770E+000	10	...........
	57	0.773333	9.21034E-001	5.99329E-003	0.00000E+000	5.52002E-003	3.59960E-001	-1.05042E+000	3.57770E+000	10	...........
	58	0.786667	9.26678E-001	5.99513E-003	0.00000E+000	5.55555E-003	3.59960E-001	-1.05482E+000	3.57770E+000	10	...........
	59	0.8	9.32284E-001	5.99584E-003	0.00000E+000	5.58982E-003	3.59960E-001	-1.04499E+000	3.57770E+000	10	...........
	60	0.813333	9.37871E-001	5.99776E-003	0.00000E+000	5.62512E-003	3.59960E-001	-1.04989E+000	3.57770E+000	10	...........
	61	0.826667	9.43414E-001	5.99232E-003	0.00000E+000	5.65324E-003	3.59960E-001	-1.05488E+000	3.57770E+000	10	...........
	62	0.84	9.49003E-001	5.99299E-003	0.00000E+000	5.68736E-003	3.59960E-001	-1.04476E+000	3.57770E+000	10	...........
	63	0.853333	9.54495E-001	5.99462E-003	0.00000E+000	5.72183E-003	3.59960E-001	-1.04958E+000	3.57770E+000	10	...........
	64	0.866667	9.59968E-001	5.99370E-003	0.00000E+000	5.75376E-003	3.59960E-001	-1.05519E+000	3.57770E+000	10	...........
	65	0.88	9.65486E-001	5.99659E-003	0.00000E+000	5.78962E-003	3.59960E-001	-1.04491E+000	3.57770E+000	10	...........
	66	0.893333	9.70968E-001	5.99033E-003	0.00000E+000	5.81642E-003	3.59960E-001	-1.04936E+000	3.57770E+000	10	...........
	67	0.906667	9.76418E-001	5.99285E-003	0.00000E+000	5.85153E-003	3.59960E-001	-1.05517E+000	3.57770E+000	10	...........
	68	0.92	9.81802E-001	5.99373E-003	0.00000E+000	5.88466E-003	3.59960E-001	-1.04464E+000	3.57770E+000	10	...........
	69	0.933333	9.87182E-001	5.99203E-003	0.00000E+000	5.91522E-003	3.59960E-001	-1.04955E+000	3.57770E+000	10	...........
	70	0.946667	9.92526E-001	5.99402E-003	0.00000E+000	5.94922E-003	3.59960E-001	-1.05558E+000	3.57770E+000	10	...........
	71	0.96	9.97828E-001	5.99446E-003	0.00000E+000	5.98144E-003	3.59960E-001	-1.04466E+000	3.57770E+000	10	...........
STARTTIMEOFFSET	QUANT	133.3433	Start Time Offset (s)

File: CHARGE_#68.DTA
EXPLAIN
TAG	PWR800_CHARGE
TITLE	LABEL	PWR Cyclic Charge Discharge (Cell) - Charge Step	Test &Identifier
DATE	LABEL	22-6-2017	Date
TIME	LABEL	15:38:05	Time
NOTES	NOTES	3	&Notes...
	supercap test cell
	0.6mg
	6M KOH
PSTAT	PSTAT	IFC5000-01520	Potentiostat
CAPACITY	QUANT	1.00000E-003	Capacity (A-hr)
CELLTYPE	SELECTOR	1	&Cell Type
WORKINGCONNECTION	SELECTOR	0	&Working Lead
MAXCHARGETIME	VARIABLEANDUNITS	1.00000E+002	s	1.00000E+002	second(s)	Max &Charge Time
CHARGECURRENT	QUANT	6.00000E-003	&Charge Current (A)
VOLTAGEFINISH	TWOPARAM	F	1.00000E-003	3.60000E+003	&Voltage Finish	 I (A) < 	Max Time(s)
SAMPLETIME	QUANT	1.00000E-002	Sa&mple Period (s)
CHARGESTOPAT1	MULTIPARAM	4	1.00000E+000	Charge Stop At &1	Voltage > Limit	V
CHARGESTOPAT2	MULTIPARAM	0	0.00000E+000	Charge Stop At &2	None	N/A
AESBHCSELECTOR	TOGGLE	F	Save Both Half Cells
IRCOMP	TOGGLE	F	IR &Measure
EOC	QUANT	0	Open Circuit (V)
SEQUENCER	TOGGLE	TRUE	Run as Sequence
PSTATMODEL	IQUANT	53	Pstat Model
PSTATSECTION	LABEL	IFC5000-01520	Pstat Section
PSTATSERIALNO	LABEL	01520	Pstat Serial Number
CTRLMODE	IQUANT	0	Control Mode
ELECTROMETER	IQUANT	1	RE=0 or CS=1
IESTAB	IQUANT	0	I/E Stability
CASPEED	IQUANT	4	Control Amp Speed
CONVENTION	IQUANT	1	Current Convention
ICHRANGE	IQUANT	2	Ich Range
ICHRANGEMODE	TOGGLE	T	Ich Auto Range
ICHOFFSETENABLE	TOGGLE	F	Ich Offset Enable
ICHOFFSET	QUANT	0	Ich Offset (V)
ICHFILTER	IQUANT	1	Ich Filter
VCHRANGE	IQUANT	2	Vch Range
VCHRANGEMODE	TOGGLE	T	Vch Auto Range
VCHOFFSETENABLE	TOGGLE	F	Vch Offset Enable
VCHOFFSET	QUANT	0	Vch Offset (V)
VCHFILTER	IQUANT	1	Vch Filter
IERANGELOWERLIMIT	IQUANT	9	I/E Range Lower Limit
IERANGEMODE	TOGGLE	F	I/E AutoRange
IERANGE	IQUANT	10	I/E Range
ACHSELECT	IQUANT	1	Ach Select
ACHRANGE	IQUANT	2	Ach Range
ACHOFFSETENABLE	TOGGLE	F	Ach Offset Enable
ACHOFFSET	QUANT	0	Ach Offset (V)
ACHFILTER	IQUANT	1	Ach Filter
CABLEID	IQUANT	14	Cable ID
DCCALDATE	LABEL	20-10-2016	DC Calibration Date
ACCALDATE	LABEL	12/3/2015	AC Calibration Date
FRAMEWORKVERSION	QUANT	7.01	Framework Version
INSTRUMENTVERSION	LABEL	4.00	Instrument Version
CURVE	TABLE	72
	Pt	T	Vf	Im	Vu	Pwr	Sig	Ach	Temp	IERange	Over
	#	s	V	A	V	W	V	V	deg C	#	bits
	0	0.013333	5.80491E-001	5.99344E-003	0.00000E+000	3.47914E-003	3.59960E-001	-1.05181E+000	3.57780E+000	10	...........
	1	0.026667	5.88658E-001	5.99546E-003	0.00000E+000	3.52928E-003	3.59960E-001	-1.04645E+000	3.57780E+000	10	...........
	2	0.04	5.96106E-001	5.99068E-003	0.00000E+000	3.57108E-003	3.59960E-001	-1.05694E+000	3.57780E+000	10	...........
	3	0.053333	6.03197E-001	5.99030E-003	0.00000E+000	3.61333E-003	3.59960E-001	-1.05163E+000	3.57780E+000	10	...........
	4	0.066667	6.09992E-001	5.99221E-003	0.00000E+000	3.65520E-003	3.59960E-001	-1.04604E+000	3.57780E+000	10	...........
	5	0.08	6.16726E-001	5.99108E-003	0.00000E+000	3.69485E-003	3.59960E-001	-1.05675E+000	3.57780E+000	10	...........
	6	0.093333	6.23201E-001	5.99480E-003	0.00000E+000	3.73597E-003	3.59960E-001	-1.05204E+000	3.57780E+000	10	...........
	7	0.106667	6.29560E-001	5.99199E-003	0.00000E+000	3.77231E-003	3.59960E-001	-1.04629E+000	3.57780E+000	10	...........
	8	0.12	6.35801E-001	5.99550E-003	0.00000E+000	3.81194E-003	3.59960E-001	-1.05646E+000	3.57780E+000	10	...........
	9	0.133333	6.42037E-001	5.99281E-003	0.00000E+000	3.84760E-003	3.59960E-001	-1.05192E+000	3.57780E+000	10	...........
	10	0.146667	6.48158E-001	5.99686E-003	0.00000E+000	3.88691E-003	3.59960E-001	-1.04627E+000	3.57780E+000	10	...........
	11	0.16	6.54259E-001	5.99493E-003	0.00000E+000	3.92223E-003	3.59960E-001	-1.05663E+000	3.57780E+000	10	...........
	12	0.173333	6.60306E-001	5.99243E-003	0.00000E+000	3.95683E-003	3.59960E-001	-1.05237E+000	3.57780E+000	10	...........
	13	0.186667	6.66363E-001	5.99395E-003	0.00000E+000	3.99415E-003	3.59960E-001	-1.04610E+000	3.57780E+000	10	...........
	14	0.2	6.72343E-001	5.99313E-003	0.00000E+000	4.02944E-003	3.59960E-001	-1.05631E+000	3.57780E+000	10	...........
	15	0.213333	6.78273E-001	5.99603E-003	0.00000E+000	4.06695E-003	3.59960E-001	-1.05232E+000	3.57780E+000	10	...........
	16	0.226667	6.84193E-001	5.99156E-003	0.00000E+000	4.09939E-003	3.59960E-001	-1.04645E+000	3.57780E+000	10	...........
	17	0.24	6.90101E-001	5.98977E-003	0.00000E+000	4.13354E-003	3.59960E-001	-1.05628E+000	3.57780E+000	10	...........
	18	0.253333	6.96052E-001	5.99408E-003	0.00000E+000	4.17219E-003	3.59960E-001	-1.05234E+000	3.57780E+000	10	...........
	19	0.266667	7.01946E-001	5.99434E-003	0.00000E+000	4.20771E-003	3.59960E-001	-1.04625E+000	3.57780E+000	10	...........
	20	0.28	7.07771E-001	5.99352E-003	0.00000E+000	4.24204E-003	3.59960E-001	-1.05624E+000	3.57780E+000	10	...........
	21	0.293333	7.13617E-001	5.99433E-003	0.00000E+000	4.27766E-003	3.59960E-001	-1.05265E+000	3.57780E+000	10	...........
	22	0.306667	7.19498E-001	5.99475E-003	0.00000E+000	4.31321E-003	3.59960E-001	-1.04644E+000	3.57780E+000	10	...........
	23	0.32	7.25349E-001	5.99432E-003	0.00000E+000	4.34797E-003	3.59960E-001	-1.05559E+000	3.57780E+000	10	...........
	24	0.333333	7.31162E-001	5.99666E-003	0.00000E+000	4.38453E-003	3.59960E-001	-1.05223E+000	3.57780E+000	10	...........
	25	0.346667	7.37000E-001	5.99264E-003	0.00000E+000	4.41658E-003	3.59960E-001	-1.04584E+000	3.57780E+000	10	...........
	26	0.36	7.42846E-001	5.98979E-003	0.00000E+000	4.44949E-003	3.59960E-001	-1.05537E+000	3.57780E+000	10	...........
	27	0.373333	7.48692E-001	5.99141E-003	0.00000E+000	4.48572E-003	3.59960E-001	-1.05234E+000	3.57780E+000	10	...........
	28	0.386667	7.54555E-001	5.99409E-003	0.00000E+000	4.52287E-003	3.59960E-001	-1.04564E+000	3.57780E+000	10	...........
	29	0.4	7.60363E-001	5.99726E-003	0.00000E+000	4.56010E-003	3.59960E-001	-1.05512E+000	3.57780E+000	10	...........
	30	0.413333	7.66150E-001	5.99107E-003	0.00000E+000	4.59006E-003	3.59960E-001	-1.05235E+000	3.57780E+000	10	...........
	31	0.426667	7.71978E-001	5.98936E-003	0.00000E+000	4.62366E-003	3.59960E-001	-1.04573E+000	3.57780E+000	10	...........
	32	0.44	7.77773E-001	5.99089E-003	0.00000E+000	4.65955E-003	3.59960E-001	-1.05500E+000	3.57780E+000	10	...........
	33	0.453333	7.83594E-001	5.99516E-003	0.00000E+000	4.69777E-003	3.59960E-001	-1.05238E+000	3.57780E+000	10	...........
	34	0.466667	7.89405E-001	5.99521E-003	0.00000E+000	4.73265E-003	3.59960E-001	-1.04561E+000	3.57780E+000	10	...........
	35	0.48	7.95262E-001	5.99735E-003	0.00000E+000	4.76946E-003	3.59960E-001	-1.05500E+000	3.57780E+000	10	...........
	36	0.493333	8.01030E-001	5.99954E-003	0.00000E+000	4.80581E-003	3.59960E-001	-1.05280E+000	3.57780E+000	10	...........
	37	0.506667	8.06794E-001	5.99183E-003	0.00000E+000	4.83417E-003	3.59960E-001	-1.04553E+000	3.57780E+000	10	...........
	38	0.52	8.12582E-001	5.99123E-003	0.00000E+000	4.86836E-003	3.59960E-001	-1.05469E+000	3.57780E+000	10	...........
	39	0.533333	8.18379E-001	5.99715E-003	0.00000E+000	4.90794E-003	3.59960E-001	-1.05258E+000	3.57780E+000	10	...........
	40	0.546667	8.24169E-001	5.99357E-003	0.00000E+000	4.93972E-003	3.59960E-001	-1.04579E+000	3.57780E+000	10	...........
	41	0.56	8.29900E-001	5.99734E-003	0.00000E+000	4.97719E-003	3.59960E-001	-1.05475E+000	3.57780E+000	10	...........
	42	0.573333	8.35681E-001	5.99153E-003	0.00000E+000	5.00700E-003	3.59960E-001	-1.05286E+000	3.57780E+000	10	...........
	43	0.586667	8.41477E-001	5.99645E-003	0.00000E+000	5.04587E-003	3.59960E-001	-1.04561E+000	3.57780E+000	10	...........
	44	0.6	8.47265E-001	5.99462E-003	0.00000E+000	5.07903E-003	3.59960E-001	-1.05443E+000	3.57780E+000	10	...........
	45	0.613333	8.53008E-001	5.99280E-003	0.00000E+000	5.11191E-003	3.59960E-001	-1.05290E+000	3.57780E+000	10	...........
	46	0.626667	8.58797E-001	5.99591E-003	0.00000E+000	5.14927E-003	3.59960E-001	-1.04580E+000	3.57780E+000	10	...........
	47	0.64	8.64563E-001	5.99531E-003	0.00000E+000	5.18332E-003	3.59960E-001	-1.05425E+000	3.57780E+000	10	...........
	48	0.653333	8.70336E-001	5.99459E-003	0.00000E+000	5.21731E-003	3.59960E-001	-1.05249E+000	3.57780E+000	10	...........
	49	0.666667	8.76109E-001	5.99415E-003	0.00000E+000	5.25153E-003	3.59960E-001	-1.04510E+000	3.57780E+000	10	...........
	50	0.68	8.81825E-001	5.99510E-003	0.00000E+000	5.28663E-003	3.59960E-001	-1.05382E+000	3.57780E+000	10	...........
	51	0.693333	8.87542E-001	5.99259E-003	0.00000E+000	5.31868E-003	3.59960E-001	-1.05279E+000	3.57780E+000	10	...........
	52	0.706667	8.93263E-001	5.99236E-003	0.00000E+000	5.35276E-003	3.59960E-001	-1.04503E+000	3.57780E+000	10	...........
	53	0.72	8.98970E-001	5.99601E-003	0.00000E+000	5.39024E-003	3.59960E-001	-1.05353E+000	3.57780E+000	10	...........
	54	0.733333	9.04615E-001	5.99662E-003	0.00000E+000	5.42463E-003	3.59960E-001	-1.05275E+000	3.57780E+000	10	...........
	55	0.746667	9.10272E-001	5.99193E-003	0.00000E+000	5.45429E-003	3.59960E-001	-1.04526E+000	3.57780E+000	10	...........
	56	0.76	9.15940E-001	5.99428E-003	0.00000E+000	5.49041E-003	3.59960E-001	-1.05378E+000	3.57780E+000	10	...........
	57	0.773333	9.21631E-001	5.99306E-003	0.00000E+000	5.52339E-003	3.59960E-001	-1.05287E+000	3.57780E+000	10	...........
	58	0.786667	9.27237E-001	5.99113E-003	0.00000E+000	5.55520E-003	3.59960E-001	-1.04505E+000	3.57780E+000	10	...........
	59	0.8	9.32840E-001	5.99408E-003	0.00000E+000	5.59152E-003	3.59960E-001	-1.05351E+000	3.57780E+000	10	...........
	60	0.813333	9.38402E-001	5.99333E-003	0.00000E+000	5.62416E-003	3.59960E-001	-1.05314E+000	3.57780E+000	10	...........
	61	0.826667	9.43976E-001	5.99223E-003	0.00000E+000	5.65652E-003	3.59960E-001	-1.04530E+000	3.57841E+000	10	...........
	62	0.84	9.49590E-001	5.99427E-003	0.00000E+000	5.69210E-003	3.59960E-001	-1.05338E+000	3.57850E+000	10	...........
	63	0.853333	9.55090E-001	5.99490E-003	0.00000E+000	5.72567E-003	3.59960E-001	-1.05303E+000	3.57850E+000	10	...........
	64	0.866667	9.60599E-001	5.99827E-003	0.00000E+000	5.76193E-003	3.59960E-001	-1.04501E+000	3.57850E+000	10	...........
	65	0.88	9.66076E-001	5.99663E-003	0.00000E+000	5.79320E-003	3.59960E-001	-1.05329E+000	3.57850E+000	10	...........
	66	0.893333	9.71547E-001	5.99112E-003	0.00000E+000	5.82066E-003	3.59960E-001	-1.05346E+000	3.57850E+000	10	...........
	67	0.906667	9.77024E-001	5.99273E-003	0.00000E+000	5.85504E-003	3.59960E-001	-1.04531E+000	3.57850E+000	10	...........
	68	0.92	9.82379E-001	5.99434E-003	0.00000E+000	5.88872E-003	3.59960E-001	-1.05304E+000	3.57850E+000	10	...........
	69	0.933333	9.87736E-001	5.99480E-003	0.00000E+000	5.92128E-003	3.59960E-001	-1.05338E+000	3.57850E+000	10	...........
	70	0.946667	9.93031E-001	5.99462E-003	0.00000E+000	5.95284E-003	3.59960E-001	-1.04526E+000	3.57850E+000	10	...........
	71	0.96	9.98297E-001	5.99663E-003	0.00000E+000	5.98642E-003	3.59960E-001	-1.05307E+000	3.57850E+000	10	...........
STARTTIMEOFFSET	QUANT	135.25	Start Time Offset (s)