Folder: Tesis/Data/CV_CRGO300517_1/PWRCCD_CRGO300517_1/CHARGE_DISCHARGE (part 65)

File: CHARGE_#129.DTA
EXPLAIN
TAG	PWR800_CHARGE
TITLE	LABEL	PWR Cyclic Charge Discharge (Cell) - Charge Step	Test &Identifier
DATE	LABEL	22-6-2017	Date
TIME	LABEL	15:40:47	Time
NOTES	NOTES	3	&Notes...
	supercap test cell
	0.6mg
	6M KOH
PSTAT	PSTAT	IFC5000-01520	Potentiostat
CAPACITY	QUANT	1.00000E-003	Capacity (A-hr)
CELLTYPE	SELECTOR	1	&Cell Type
WORKINGCONNECTION	SELECTOR	0	&Working Lead
MAXCHARGETIME	VARIABLEANDUNITS	1.00000E+002	s	1.00000E+002	second(s)	Max &Charge Time
CHARGECURRENT	QUANT	6.00000E-003	&Charge Current (A)
VOLTAGEFINISH	TWOPARAM	F	1.00000E-003	3.60000E+003	&Voltage Finish	 I (A) < 	Max Time(s)
SAMPLETIME	QUANT	1.00000E-002	Sa&mple Period (s)
CHARGESTOPAT1	MULTIPARAM	4	1.00000E+000	Charge Stop At &1	Voltage > Limit	V
CHARGESTOPAT2	MULTIPARAM	0	0.00000E+000	Charge Stop At &2	None	N/A
AESBHCSELECTOR	TOGGLE	F	Save Both Half Cells
IRCOMP	TOGGLE	F	IR &Measure
EOC	QUANT	0	Open Circuit (V)
SEQUENCER	TOGGLE	TRUE	Run as Sequence
PSTATMODEL	IQUANT	53	Pstat Model
PSTATSECTION	LABEL	IFC5000-01520	Pstat Section
PSTATSERIALNO	LABEL	01520	Pstat Serial Number
CTRLMODE	IQUANT	0	Control Mode
ELECTROMETER	IQUANT	1	RE=0 or CS=1
IESTAB	IQUANT	0	I/E Stability
CASPEED	IQUANT	4	Control Amp Speed
CONVENTION	IQUANT	1	Current Convention
ICHRANGE	IQUANT	2	Ich Range
ICHRANGEMODE	TOGGLE	T	Ich Auto Range
ICHOFFSETENABLE	TOGGLE	F	Ich Offset Enable
ICHOFFSET	QUANT	0	Ich Offset (V)
ICHFILTER	IQUANT	1	Ich Filter
VCHRANGE	IQUANT	2	Vch Range
VCHRANGEMODE	TOGGLE	T	Vch Auto Range
VCHOFFSETENABLE	TOGGLE	F	Vch Offset Enable
VCHOFFSET	QUANT	0	Vch Offset (V)
VCHFILTER	IQUANT	1	Vch Filter
IERANGELOWERLIMIT	IQUANT	9	I/E Range Lower Limit
IERANGEMODE	TOGGLE	F	I/E AutoRange
IERANGE	IQUANT	10	I/E Range
ACHSELECT	IQUANT	1	Ach Select
ACHRANGE	IQUANT	2	Ach Range
ACHOFFSETENABLE	TOGGLE	F	Ach Offset Enable
ACHOFFSET	QUANT	0	Ach Offset (V)
ACHFILTER	IQUANT	1	Ach Filter
CABLEID	IQUANT	14	Cable ID
DCCALDATE	LABEL	20-10-2016	DC Calibration Date
ACCALDATE	LABEL	12/3/2015	AC Calibration Date
FRAMEWORKVERSION	QUANT	7.01	Framework Version
INSTRUMENTVERSION	LABEL	4.00	Instrument Version
CURVE	TABLE	68
	Pt	T	Vf	Im	Vu	Pwr	Sig	Ach	Temp	IERange	Over
	#	s	V	A	V	W	V	V	deg C	#	bits
	0	0.013333	5.94744E-001	5.98925E-003	0.00000E+000	3.56207E-003	3.59960E-001	-1.08292E+000	3.57790E+000	10	...........
	1	0.026667	6.03065E-001	5.99716E-003	0.00000E+000	3.61668E-003	3.59960E-001	-1.07331E+000	3.57790E+000	10	...........
	2	0.04	6.10670E-001	5.99472E-003	0.00000E+000	3.66080E-003	3.59960E-001	-1.07203E+000	3.57790E+000	10	...........
	3	0.053333	6.17960E-001	5.99222E-003	0.00000E+000	3.70295E-003	3.59960E-001	-1.08286E+000	3.57790E+000	10	...........
	4	0.066667	6.24852E-001	5.99259E-003	0.00000E+000	3.74448E-003	3.59960E-001	-1.07333E+000	3.57790E+000	10	...........
	5	0.08	6.31647E-001	5.99456E-003	0.00000E+000	3.78645E-003	3.59960E-001	-1.07185E+000	3.57790E+000	10	...........
	6	0.093333	6.38317E-001	5.99440E-003	0.00000E+000	3.82632E-003	3.59960E-001	-1.08259E+000	3.57790E+000	10	...........
	7	0.106667	6.44846E-001	5.99279E-003	0.00000E+000	3.86443E-003	3.59960E-001	-1.07311E+000	3.57790E+000	10	...........
	8	0.12	6.51279E-001	5.99409E-003	0.00000E+000	3.90383E-003	3.59960E-001	-1.07219E+000	3.57790E+000	10	...........
	9	0.133333	6.57680E-001	5.99511E-003	0.00000E+000	3.94286E-003	3.59960E-001	-1.08279E+000	3.57790E+000	10	...........
	10	0.146667	6.63984E-001	5.99013E-003	0.00000E+000	3.97735E-003	3.59960E-001	-1.07315E+000	3.57790E+000	10	...........
	11	0.16	6.70262E-001	5.99069E-003	0.00000E+000	4.01533E-003	3.59960E-001	-1.07194E+000	3.57790E+000	10	...........
	12	0.173333	6.76523E-001	5.98971E-003	0.00000E+000	4.05218E-003	3.59960E-001	-1.08268E+000	3.57790E+000	10	...........
	13	0.186667	6.82683E-001	5.99511E-003	0.00000E+000	4.09276E-003	3.59960E-001	-1.07332E+000	3.57790E+000	10	...........
	14	0.2	6.88815E-001	5.99018E-003	0.00000E+000	4.12613E-003	3.59960E-001	-1.07191E+000	3.57790E+000	10	...........
	15	0.213333	6.94912E-001	5.99350E-003	0.00000E+000	4.16496E-003	3.59960E-001	-1.08271E+000	3.57790E+000	10	...........
	16	0.226667	7.01023E-001	5.99555E-003	0.00000E+000	4.20302E-003	3.59960E-001	-1.07283E+000	3.57790E+000	10	...........
	17	0.24	7.07103E-001	5.99628E-003	0.00000E+000	4.23999E-003	3.59960E-001	-1.07145E+000	3.57790E+000	10	...........
	18	0.253333	7.13173E-001	5.99489E-003	0.00000E+000	4.27539E-003	3.59960E-001	-1.08217E+000	3.57790E+000	10	...........
	19	0.266667	7.19243E-001	5.99518E-003	0.00000E+000	4.31199E-003	3.59960E-001	-1.07283E+000	3.57790E+000	10	...........
	20	0.28	7.25285E-001	5.99188E-003	0.00000E+000	4.34582E-003	3.59960E-001	-1.07123E+000	3.57790E+000	10	...........
	21	0.293333	7.31341E-001	5.99550E-003	0.00000E+000	4.38476E-003	3.59960E-001	-1.08202E+000	3.57790E+000	10	...........
	22	0.306667	7.37378E-001	5.99319E-003	0.00000E+000	4.41924E-003	3.59960E-001	-1.07254E+000	3.57790E+000	10	...........
	23	0.32	7.43345E-001	5.98976E-003	0.00000E+000	4.45246E-003	3.59960E-001	-1.07148E+000	3.57790E+000	10	...........
	24	0.333333	7.49360E-001	5.99265E-003	0.00000E+000	4.49066E-003	3.59960E-001	-1.08206E+000	3.57790E+000	10	...........
	25	0.346667	7.55361E-001	5.99795E-003	0.00000E+000	4.53062E-003	3.59960E-001	-1.07270E+000	3.57790E+000	10	...........
	26	0.36	7.61304E-001	5.99033E-003	0.00000E+000	4.56046E-003	3.59960E-001	-1.07123E+000	3.57790E+000	10	...........
	27	0.373333	7.67270E-001	5.99521E-003	0.00000E+000	4.59995E-003	3.59960E-001	-1.08212E+000	3.57790E+000	10	...........
	28	0.386667	7.73254E-001	5.99209E-003	0.00000E+000	4.63341E-003	3.59960E-001	-1.07271E+000	3.57790E+000	10	...........
	29	0.4	7.79264E-001	5.99401E-003	0.00000E+000	4.67091E-003	3.59960E-001	-1.07128E+000	3.57790E+000	10	...........
	30	0.413333	7.85261E-001	5.99359E-003	0.00000E+000	4.70653E-003	3.59960E-001	-1.08198E+000	3.57790E+000	10	...........
	31	0.426667	7.91218E-001	5.99078E-003	0.00000E+000	4.74001E-003	3.59960E-001	-1.07258E+000	3.57790E+000	10	...........
	32	0.44	7.97222E-001	5.99153E-003	0.00000E+000	4.77658E-003	3.59960E-001	-1.07122E+000	3.57790E+000	10	...........
	33	0.453333	8.03180E-001	5.99753E-003	0.00000E+000	4.81709E-003	3.59960E-001	-1.08221E+000	3.57790E+000	10	...........
	34	0.466667	8.09088E-001	5.99318E-003	0.00000E+000	4.84901E-003	3.59960E-001	-1.07286E+000	3.57790E+000	10	...........
	35	0.48	8.15031E-001	5.99176E-003	0.00000E+000	4.88347E-003	3.59960E-001	-1.07112E+000	3.57790E+000	10	...........
	36	0.493333	8.21013E-001	5.98993E-003	0.00000E+000	4.91781E-003	3.59960E-001	-1.08198E+000	3.57790E+000	10	...........
	37	0.506667	8.26919E-001	5.99448E-003	0.00000E+000	4.95695E-003	3.59960E-001	-1.07277E+000	3.57790E+000	10	...........
	38	0.52	8.32828E-001	5.99497E-003	0.00000E+000	4.99278E-003	3.59960E-001	-1.07132E+000	3.57790E+000	10	...........
	39	0.533333	8.38746E-001	5.99601E-003	0.00000E+000	5.02913E-003	3.59960E-001	-1.08201E+000	3.57790E+000	10	...........
	40	0.546667	8.44669E-001	5.99956E-003	0.00000E+000	5.06764E-003	3.59960E-001	-1.07264E+000	3.57790E+000	10	...........
	41	0.56	8.50594E-001	5.99553E-003	0.00000E+000	5.09976E-003	3.59960E-001	-1.07051E+000	3.57790E+000	10	...........
	42	0.573333	8.56493E-001	5.99837E-003	0.00000E+000	5.13757E-003	3.59960E-001	-1.08143E+000	3.57790E+000	10	...........
	43	0.586667	8.62381E-001	5.99550E-003	0.00000E+000	5.17040E-003	3.59960E-001	-1.07246E+000	3.57790E+000	10	...........
	44	0.6	8.68268E-001	5.99101E-003	0.00000E+000	5.20180E-003	3.59960E-001	-1.07083E+000	3.57790E+000	10	...........
	45	0.613333	8.74182E-001	5.99653E-003	0.00000E+000	5.24207E-003	3.59960E-001	-1.08142E+000	3.57790E+000	10	...........
	46	0.626667	8.80018E-001	5.99027E-003	0.00000E+000	5.27154E-003	3.59960E-001	-1.07229E+000	3.57790E+000	10	...........
	47	0.64	8.85899E-001	5.99554E-003	0.00000E+000	5.31145E-003	3.59960E-001	-1.07054E+000	3.57790E+000	10	...........
	48	0.653333	8.91714E-001	5.99732E-003	0.00000E+000	5.34789E-003	3.59960E-001	-1.08159E+000	3.57790E+000	10	...........
	49	0.666667	8.97555E-001	5.99690E-003	0.00000E+000	5.38255E-003	3.59960E-001	-1.07246E+000	3.57790E+000	10	...........
	50	0.68	9.03347E-001	5.99715E-003	0.00000E+000	5.41751E-003	3.59960E-001	-1.07070E+000	3.57790E+000	10	...........
	51	0.693333	9.09130E-001	5.99554E-003	0.00000E+000	5.45073E-003	3.59960E-001	-1.08120E+000	3.57790E+000	10	...........
	52	0.706667	9.14908E-001	5.99261E-003	0.00000E+000	5.48269E-003	3.59960E-001	-1.07219E+000	3.57790E+000	10	...........
	53	0.72	9.20676E-001	5.99303E-003	0.00000E+000	5.51764E-003	3.59960E-001	-1.07058E+000	3.57790E+000	10	...........
	54	0.733333	9.26423E-001	5.99579E-003	0.00000E+000	5.55464E-003	3.59960E-001	-1.08128E+000	3.57790E+000	10	...........
	55	0.746667	9.32113E-001	5.99483E-003	0.00000E+000	5.58786E-003	3.59960E-001	-1.07219E+000	3.57790E+000	10	...........
	56	0.76	9.37728E-001	5.99240E-003	0.00000E+000	5.61925E-003	3.59960E-001	-1.07029E+000	3.57790E+000	10	...........
	57	0.773333	9.43424E-001	5.99399E-003	0.00000E+000	5.65488E-003	3.59960E-001	-1.08134E+000	3.57790E+000	10	...........
	58	0.786667	9.49065E-001	5.99246E-003	0.00000E+000	5.68723E-003	3.59960E-001	-1.07236E+000	3.57790E+000	10	...........
	59	0.8	9.54693E-001	5.99530E-003	0.00000E+000	5.72368E-003	3.59960E-001	-1.07063E+000	3.57827E+000	10	...........
	60	0.813333	9.60271E-001	5.99366E-003	0.00000E+000	5.75553E-003	3.59960E-001	-1.08145E+000	3.57840E+000	10	...........
	61	0.826667	9.65816E-001	5.99868E-003	0.00000E+000	5.79363E-003	3.59960E-001	-1.07225E+000	3.57840E+000	10	...........
	62	0.84	9.71348E-001	5.99250E-003	0.00000E+000	5.82080E-003	3.59960E-001	-1.07052E+000	3.57840E+000	10	...........
	63	0.853333	9.76849E-001	5.99278E-003	0.00000E+000	5.85404E-003	3.59960E-001	-1.08138E+000	3.57840E+000	10	...........
	64	0.866667	9.82294E-001	5.99543E-003	0.00000E+000	5.88927E-003	3.59960E-001	-1.07241E+000	3.57840E+000	10	...........
	65	0.88	9.87732E-001	5.99126E-003	0.00000E+000	5.91776E-003	3.59960E-001	-1.07023E+000	3.57840E+000	10	...........
	66	0.893333	9.93116E-001	5.99722E-003	0.00000E+000	5.95594E-003	3.59960E-001	-1.08077E+000	3.57840E+000	10	...........
	67	0.905	9.98113E-001	5.99365E-003	0.00000E+000	5.98234E-003	3.59960E-001	-1.07009E+000	3.57840E+000	10	...........
STARTTIMEOFFSET	QUANT	248.0483	Start Time Offset (s)

File: CHARGE_#130.DTA
EXPLAIN
TAG	PWR800_CHARGE
TITLE	LABEL	PWR Cyclic Charge Discharge (Cell) - Charge Step	Test &Identifier
DATE	LABEL	22-6-2017	Date
TIME	LABEL	15:40:50	Time
NOTES	NOTES	3	&Notes...
	supercap test cell
	0.6mg
	6M KOH
PSTAT	PSTAT	IFC5000-01520	Potentiostat
CAPACITY	QUANT	1.00000E-003	Capacity (A-hr)
CELLTYPE	SELECTOR	1	&Cell Type
WORKINGCONNECTION	SELECTOR	0	&Working Lead
MAXCHARGETIME	VARIABLEANDUNITS	1.00000E+002	s	1.00000E+002	second(s)	Max &Charge Time
CHARGECURRENT	QUANT	6.00000E-003	&Charge Current (A)
VOLTAGEFINISH	TWOPARAM	F	1.00000E-003	3.60000E+003	&Voltage Finish	 I (A) < 	Max Time(s)
SAMPLETIME	QUANT	1.00000E-002	Sa&mple Period (s)
CHARGESTOPAT1	MULTIPARAM	4	1.00000E+000	Charge Stop At &1	Voltage > Limit	V
CHARGESTOPAT2	MULTIPARAM	0	0.00000E+000	Charge Stop At &2	None	N/A
AESBHCSELECTOR	TOGGLE	F	Save Both Half Cells
IRCOMP	TOGGLE	F	IR &Measure
EOC	QUANT	0	Open Circuit (V)
SEQUENCER	TOGGLE	TRUE	Run as Sequence
PSTATMODEL	IQUANT	53	Pstat Model
PSTATSECTION	LABEL	IFC5000-01520	Pstat Section
PSTATSERIALNO	LABEL	01520	Pstat Serial Number
CTRLMODE	IQUANT	0	Control Mode
ELECTROMETER	IQUANT	1	RE=0 or CS=1
IESTAB	IQUANT	0	I/E Stability
CASPEED	IQUANT	4	Control Amp Speed
CONVENTION	IQUANT	1	Current Convention
ICHRANGE	IQUANT	2	Ich Range
ICHRANGEMODE	TOGGLE	T	Ich Auto Range
ICHOFFSETENABLE	TOGGLE	F	Ich Offset Enable
ICHOFFSET	QUANT	0	Ich Offset (V)
ICHFILTER	IQUANT	1	Ich Filter
VCHRANGE	IQUANT	2	Vch Range
VCHRANGEMODE	TOGGLE	T	Vch Auto Range
VCHOFFSETENABLE	TOGGLE	F	Vch Offset Enable
VCHOFFSET	QUANT	0	Vch Offset (V)
VCHFILTER	IQUANT	1	Vch Filter
IERANGELOWERLIMIT	IQUANT	9	I/E Range Lower Limit
IERANGEMODE	TOGGLE	F	I/E AutoRange
IERANGE	IQUANT	10	I/E Range
ACHSELECT	IQUANT	1	Ach Select
ACHRANGE	IQUANT	2	Ach Range
ACHOFFSETENABLE	TOGGLE	F	Ach Offset Enable
ACHOFFSET	QUANT	0	Ach Offset (V)
ACHFILTER	IQUANT	1	Ach Filter
CABLEID	IQUANT	14	Cable ID
DCCALDATE	LABEL	20-10-2016	DC Calibration Date
ACCALDATE	LABEL	12/3/2015	AC Calibration Date
FRAMEWORKVERSION	QUANT	7.01	Framework Version
INSTRUMENTVERSION	LABEL	4.00	Instrument Version
CURVE	TABLE	68
	Pt	T	Vf	Im	Vu	Pwr	Sig	Ach	Temp	IERange	Over
	#	s	V	A	V	W	V	V	deg C	#	bits
	0	0.013333	5.94760E-001	5.99337E-003	0.00000E+000	3.56462E-003	3.59960E-001	-1.08329E+000	3.57690E+000	10	...........
	1	0.026667	6.03060E-001	5.99490E-003	0.00000E+000	3.61528E-003	3.59960E-001	-1.07421E+000	3.57690E+000	10	...........
	2	0.04	6.10656E-001	5.99184E-003	0.00000E+000	3.65896E-003	3.59960E-001	-1.07256E+000	3.57690E+000	10	...........
	3	0.053333	6.17907E-001	5.99447E-003	0.00000E+000	3.70402E-003	3.59960E-001	-1.08325E+000	3.57690E+000	10	...........
	4	0.066667	6.24900E-001	5.99458E-003	0.00000E+000	3.74602E-003	3.59960E-001	-1.07408E+000	3.57690E+000	10	...........
	5	0.08	6.31637E-001	5.99438E-003	0.00000E+000	3.78627E-003	3.59960E-001	-1.07246E+000	3.57690E+000	10	...........
	6	0.093333	6.38278E-001	5.99236E-003	0.00000E+000	3.82479E-003	3.59960E-001	-1.08274E+000	3.57690E+000	10	...........
	7	0.106667	6.44795E-001	5.99528E-003	0.00000E+000	3.86573E-003	3.59960E-001	-1.07371E+000	3.57690E+000	10	...........
	8	0.12	6.51239E-001	5.99375E-003	0.00000E+000	3.90336E-003	3.59960E-001	-1.07219E+000	3.57690E+000	10	...........
	9	0.133333	6.57615E-001	5.99419E-003	0.00000E+000	3.94187E-003	3.59960E-001	-1.08304E+000	3.57690E+000	10	...........
	10	0.146667	6.63925E-001	5.99474E-003	0.00000E+000	3.98006E-003	3.59960E-001	-1.07398E+000	3.57690E+000	10	...........
	11	0.16	6.70217E-001	5.99538E-003	0.00000E+000	4.01820E-003	3.59960E-001	-1.07230E+000	3.57690E+000	10	...........
	12	0.173333	6.76444E-001	5.99559E-003	0.00000E+000	4.05568E-003	3.59960E-001	-1.08250E+000	3.57690E+000	10	...........
	13	0.186667	6.82587E-001	5.99623E-003	0.00000E+000	4.09295E-003	3.59960E-001	-1.07380E+000	3.57690E+000	10	...........
	14	0.2	6.88746E-001	5.99294E-003	0.00000E+000	4.12761E-003	3.59960E-001	-1.07170E+000	3.57712E+000	10	...........
	15	0.213333	6.94895E-001	5.99469E-003	0.00000E+000	4.16568E-003	3.59960E-001	-1.08227E+000	3.57720E+000	10	...........
	16	0.226667	7.00972E-001	5.99269E-003	0.00000E+000	4.20071E-003	3.59960E-001	-1.07323E+000	3.57720E+000	10	...........
	17	0.24	7.07041E-001	5.99620E-003	0.00000E+000	4.23956E-003	3.59960E-001	-1.07156E+000	3.57720E+000	10	...........
	18	0.253333	7.13093E-001	5.99239E-003	0.00000E+000	4.27313E-003	3.59960E-001	-1.08229E+000	3.57720E+000	10	...........
	19	0.266667	7.19165E-001	5.99613E-003	0.00000E+000	4.31221E-003	3.59960E-001	-1.07362E+000	3.57720E+000	10	...........
	20	0.28	7.25225E-001	5.99430E-003	0.00000E+000	4.34722E-003	3.59960E-001	-1.07166E+000	3.57720E+000	10	...........
	21	0.293333	7.31248E-001	5.99433E-003	0.00000E+000	4.38335E-003	3.59960E-001	-1.08220E+000	3.57720E+000	10	...........
	22	0.306667	7.37258E-001	5.99324E-003	0.00000E+000	4.41856E-003	3.59960E-001	-1.07330E+000	3.57720E+000	10	...........
	23	0.32	7.43302E-001	5.99342E-003	0.00000E+000	4.45492E-003	3.59960E-001	-1.07183E+000	3.57720E+000	10	...........
	24	0.333333	7.49294E-001	5.99495E-003	0.00000E+000	4.49198E-003	3.59960E-001	-1.08227E+000	3.57720E+000	10	...........
	25	0.346667	7.55295E-001	5.99252E-003	0.00000E+000	4.52612E-003	3.59960E-001	-1.07325E+000	3.57720E+000	10	...........
	26	0.36	7.61247E-001	5.99501E-003	0.00000E+000	4.56368E-003	3.59960E-001	-1.07148E+000	3.57720E+000	10	...........
	27	0.373333	7.67205E-001	5.99089E-003	0.00000E+000	4.59624E-003	3.59960E-001	-1.08173E+000	3.57720E+000	10	...........
	28	0.386667	7.73198E-001	5.99546E-003	0.00000E+000	4.63568E-003	3.59960E-001	-1.07339E+000	3.57720E+000	10	...........
	29	0.4	7.79165E-001	5.99449E-003	0.00000E+000	4.67070E-003	3.59960E-001	-1.07155E+000	3.57720E+000	10	...........
	30	0.413333	7.85156E-001	5.99464E-003	0.00000E+000	4.70672E-003	3.59960E-001	-1.08220E+000	3.57720E+000	10	...........
	31	0.426667	7.91123E-001	5.99260E-003	0.00000E+000	4.74089E-003	3.59960E-001	-1.07336E+000	3.57720E+000	10	...........
	32	0.44	7.97113E-001	5.99549E-003	0.00000E+000	4.77908E-003	3.59960E-001	-1.07150E+000	3.57720E+000	10	...........
	33	0.453333	8.03086E-001	5.99286E-003	0.00000E+000	4.81279E-003	3.59960E-001	-1.08206E+000	3.57720E+000	10	...........
	34	0.466667	8.09028E-001	5.99694E-003	0.00000E+000	4.85170E-003	3.59960E-001	-1.07353E+000	3.57720E+000	10	...........
	35	0.48	8.14972E-001	5.99333E-003	0.00000E+000	4.88440E-003	3.59960E-001	-1.07173E+000	3.57720E+000	10	...........
	36	0.493333	8.20925E-001	5.99571E-003	0.00000E+000	4.92203E-003	3.59960E-001	-1.08193E+000	3.57720E+000	10	...........
	37	0.506667	8.26851E-001	5.99635E-003	0.00000E+000	4.95809E-003	3.59960E-001	-1.07327E+000	3.57720E+000	10	...........
	38	0.52	8.32762E-001	5.99569E-003	0.00000E+000	4.99298E-003	3.59960E-001	-1.07097E+000	3.57720E+000	10	...........
	39	0.533333	8.38683E-001	5.99361E-003	0.00000E+000	5.02674E-003	3.59960E-001	-1.08189E+000	3.57720E+000	10	...........
	40	0.546667	8.44643E-001	5.99380E-003	0.00000E+000	5.06262E-003	3.59960E-001	-1.07307E+000	3.57720E+000	10	...........
	41	0.56	8.50535E-001	5.99379E-003	0.00000E+000	5.09793E-003	3.59960E-001	-1.07120E+000	3.57720E+000	10	...........
	42	0.573333	8.56420E-001	5.99802E-003	0.00000E+000	5.13682E-003	3.59960E-001	-1.08158E+000	3.57720E+000	10	...........
	43	0.586667	8.62284E-001	5.99683E-003	0.00000E+000	5.17097E-003	3.59960E-001	-1.07318E+000	3.57720E+000	10	...........
	44	0.6	8.68201E-001	5.99303E-003	0.00000E+000	5.20316E-003	3.59960E-001	-1.07114E+000	3.57720E+000	10	...........
	45	0.613333	8.74067E-001	5.99805E-003	0.00000E+000	5.24270E-003	3.59960E-001	-1.08187E+000	3.57720E+000	10	...........
	46	0.626667	8.79940E-001	5.99655E-003	0.00000E+000	5.27660E-003	3.59960E-001	-1.07325E+000	3.57720E+000	10	...........
	47	0.64	8.85773E-001	5.99939E-003	0.00000E+000	5.31410E-003	3.59960E-001	-1.07101E+000	3.57720E+000	10	...........
	48	0.653333	8.91550E-001	5.99562E-003	0.00000E+000	5.34539E-003	3.59960E-001	-1.08158E+000	3.57720E+000	10	...........
	49	0.666667	8.97402E-001	5.99651E-003	0.00000E+000	5.38129E-003	3.59960E-001	-1.07328E+000	3.57720E+000	10	...........
	50	0.68	9.03218E-001	5.99513E-003	0.00000E+000	5.41491E-003	3.59960E-001	-1.07109E+000	3.57720E+000	10	...........
	51	0.693333	9.09034E-001	5.99278E-003	0.00000E+000	5.44764E-003	3.59960E-001	-1.08161E+000	3.57720E+000	10	...........
	52	0.706667	9.14822E-001	5.99080E-003	0.00000E+000	5.48052E-003	3.59960E-001	-1.07303E+000	3.57720E+000	10	...........
	53	0.72	9.20613E-001	5.99454E-003	0.00000E+000	5.51866E-003	3.59960E-001	-1.07113E+000	3.57720E+000	10	...........
	54	0.733333	9.26355E-001	5.99300E-003	0.00000E+000	5.55165E-003	3.59960E-001	-1.08160E+000	3.57720E+000	10	...........
	55	0.746667	9.32043E-001	5.99604E-003	0.00000E+000	5.58857E-003	3.59960E-001	-1.07349E+000	3.57720E+000	10	...........
	56	0.76	9.37706E-001	5.99443E-003	0.00000E+000	5.62101E-003	3.59960E-001	-1.07104E+000	3.57720E+000	10	...........
	57	0.773333	9.43358E-001	5.99557E-003	0.00000E+000	5.65597E-003	3.59960E-001	-1.08145E+000	3.57720E+000	10	...........
	58	0.786667	9.49023E-001	5.99390E-003	0.00000E+000	5.68834E-003	3.59960E-001	-1.07338E+000	3.57720E+000	10	...........
	59	0.8	9.54648E-001	5.99521E-003	0.00000E+000	5.72332E-003	3.59960E-001	-1.07115E+000	3.57720E+000	10	...........
	60	0.813333	9.60209E-001	5.99851E-003	0.00000E+000	5.75982E-003	3.59960E-001	-1.08193E+000	3.57720E+000	10	...........
	61	0.826667	9.65731E-001	5.99379E-003	0.00000E+000	5.78839E-003	3.59960E-001	-1.07322E+000	3.57720E+000	10	...........
	62	0.84	9.71301E-001	5.99090E-003	0.00000E+000	5.81897E-003	3.59960E-001	-1.07057E+000	3.57720E+000	10	...........
	63	0.853333	9.76849E-001	5.99556E-003	0.00000E+000	5.85676E-003	3.59960E-001	-1.08110E+000	3.57720E+000	10	...........
	64	0.866667	9.82285E-001	5.99568E-003	0.00000E+000	5.88947E-003	3.59960E-001	-1.07295E+000	3.57720E+000	10	...........
	65	0.88	9.87686E-001	5.99597E-003	0.00000E+000	5.92214E-003	3.59960E-001	-1.07064E+000	3.57720E+000	10	...........
	66	0.893333	9.93050E-001	5.99304E-003	0.00000E+000	5.95139E-003	3.59960E-001	-1.08108E+000	3.57720E+000	10	...........
	67	0.905	9.98069E-001	5.99449E-003	0.00000E+000	5.98292E-003	3.59960E-001	-1.07103E+000	3.57720E+000	10	...........
STARTTIMEOFFSET	QUANT	249.8483	Start Time Offset (s)