Folder: Tesis/Data/CV_CRGO300517_1/PWRCCD_CRGO300517_1/CHARGE_DISCHARGE (part 10)

File: CHARGE_#19.DTA
EXPLAIN
TAG	PWR800_CHARGE
TITLE	LABEL	PWR Cyclic Charge Discharge (Cell) - Charge Step	Test &Identifier
DATE	LABEL	22-6-2017	Date
TIME	LABEL	15:35:49	Time
NOTES	NOTES	3	&Notes...
	supercap test cell
	0.6mg
	6M KOH
PSTAT	PSTAT	IFC5000-01520	Potentiostat
CAPACITY	QUANT	1.00000E-003	Capacity (A-hr)
CELLTYPE	SELECTOR	1	&Cell Type
WORKINGCONNECTION	SELECTOR	0	&Working Lead
MAXCHARGETIME	VARIABLEANDUNITS	1.00000E+002	s	1.00000E+002	second(s)	Max &Charge Time
CHARGECURRENT	QUANT	6.00000E-003	&Charge Current (A)
VOLTAGEFINISH	TWOPARAM	F	1.00000E-003	3.60000E+003	&Voltage Finish	 I (A) < 	Max Time(s)
SAMPLETIME	QUANT	1.00000E-002	Sa&mple Period (s)
CHARGESTOPAT1	MULTIPARAM	4	1.00000E+000	Charge Stop At &1	Voltage > Limit	V
CHARGESTOPAT2	MULTIPARAM	0	0.00000E+000	Charge Stop At &2	None	N/A
AESBHCSELECTOR	TOGGLE	F	Save Both Half Cells
IRCOMP	TOGGLE	F	IR &Measure
EOC	QUANT	0	Open Circuit (V)
SEQUENCER	TOGGLE	TRUE	Run as Sequence
PSTATMODEL	IQUANT	53	Pstat Model
PSTATSECTION	LABEL	IFC5000-01520	Pstat Section
PSTATSERIALNO	LABEL	01520	Pstat Serial Number
CTRLMODE	IQUANT	0	Control Mode
ELECTROMETER	IQUANT	1	RE=0 or CS=1
IESTAB	IQUANT	0	I/E Stability
CASPEED	IQUANT	4	Control Amp Speed
CONVENTION	IQUANT	1	Current Convention
ICHRANGE	IQUANT	2	Ich Range
ICHRANGEMODE	TOGGLE	T	Ich Auto Range
ICHOFFSETENABLE	TOGGLE	F	Ich Offset Enable
ICHOFFSET	QUANT	0	Ich Offset (V)
ICHFILTER	IQUANT	1	Ich Filter
VCHRANGE	IQUANT	2	Vch Range
VCHRANGEMODE	TOGGLE	T	Vch Auto Range
VCHOFFSETENABLE	TOGGLE	F	Vch Offset Enable
VCHOFFSET	QUANT	0	Vch Offset (V)
VCHFILTER	IQUANT	1	Vch Filter
IERANGELOWERLIMIT	IQUANT	9	I/E Range Lower Limit
IERANGEMODE	TOGGLE	F	I/E AutoRange
IERANGE	IQUANT	10	I/E Range
ACHSELECT	IQUANT	1	Ach Select
ACHRANGE	IQUANT	2	Ach Range
ACHOFFSETENABLE	TOGGLE	F	Ach Offset Enable
ACHOFFSET	QUANT	0	Ach Offset (V)
ACHFILTER	IQUANT	1	Ach Filter
CABLEID	IQUANT	14	Cable ID
DCCALDATE	LABEL	20-10-2016	DC Calibration Date
ACCALDATE	LABEL	12/3/2015	AC Calibration Date
FRAMEWORKVERSION	QUANT	7.01	Framework Version
INSTRUMENTVERSION	LABEL	4.00	Instrument Version
CURVE	TABLE	78
	Pt	T	Vf	Im	Vu	Pwr	Sig	Ach	Temp	IERange	Over
	#	s	V	A	V	W	V	V	deg C	#	bits
	0	0.013333	5.60161E-001	5.99498E-003	0.00000E+000	3.35816E-003	3.59960E-001	-1.02666E+000	3.57720E+000	10	...........
	1	0.026667	5.68213E-001	5.99636E-003	0.00000E+000	3.40721E-003	3.59960E-001	-1.01633E+000	3.57720E+000	10	...........
	2	0.04	5.75498E-001	5.99597E-003	0.00000E+000	3.45067E-003	3.59960E-001	-1.01428E+000	3.57720E+000	10	...........
	3	0.053333	5.82396E-001	5.99227E-003	0.00000E+000	3.48987E-003	3.59960E-001	-1.02666E+000	3.57720E+000	10	...........
	4	0.066667	5.89048E-001	5.99499E-003	0.00000E+000	3.53134E-003	3.59960E-001	-1.01639E+000	3.57740E+000	10	...........
	5	0.08	5.95479E-001	5.99298E-003	0.00000E+000	3.56870E-003	3.59960E-001	-1.01421E+000	3.57740E+000	10	...........
	6	0.093333	6.01758E-001	5.99332E-003	0.00000E+000	3.60653E-003	3.59960E-001	-1.02630E+000	3.57740E+000	10	...........
	7	0.106667	6.07898E-001	5.99351E-003	0.00000E+000	3.64344E-003	3.59960E-001	-1.01624E+000	3.57740E+000	10	...........
	8	0.12	6.14041E-001	5.99323E-003	0.00000E+000	3.68009E-003	3.59960E-001	-1.01434E+000	3.57740E+000	10	...........
	9	0.133333	6.20115E-001	5.99695E-003	0.00000E+000	3.71880E-003	3.59960E-001	-1.02663E+000	3.57740E+000	10	...........
	10	0.146667	6.26049E-001	5.99550E-003	0.00000E+000	3.75348E-003	3.59960E-001	-1.01630E+000	3.57740E+000	10	...........
	11	0.16	6.31888E-001	5.99273E-003	0.00000E+000	3.78673E-003	3.59960E-001	-1.01422E+000	3.57740E+000	10	...........
	12	0.173333	6.37761E-001	5.99751E-003	0.00000E+000	3.82498E-003	3.59960E-001	-1.02663E+000	3.57740E+000	10	...........
	13	0.186667	6.43552E-001	5.99440E-003	0.00000E+000	3.85771E-003	3.59960E-001	-1.01658E+000	3.57740E+000	10	...........
	14	0.2	6.49341E-001	5.99337E-003	0.00000E+000	3.89174E-003	3.59960E-001	-1.01439E+000	3.57740E+000	10	...........
	15	0.213333	6.55091E-001	5.99640E-003	0.00000E+000	3.92819E-003	3.59960E-001	-1.02671E+000	3.57740E+000	10	...........
	16	0.226667	6.60832E-001	5.99610E-003	0.00000E+000	3.96241E-003	3.59960E-001	-1.01643E+000	3.57740E+000	10	...........
	17	0.24	6.66554E-001	5.99265E-003	0.00000E+000	3.99443E-003	3.59960E-001	-1.01426E+000	3.57740E+000	10	...........
	18	0.253333	6.72257E-001	5.99690E-003	0.00000E+000	4.03146E-003	3.59960E-001	-1.02658E+000	3.57740E+000	10	...........
	19	0.266667	6.77925E-001	5.99482E-003	0.00000E+000	4.06404E-003	3.59960E-001	-1.01638E+000	3.57740E+000	10	...........
	20	0.28	6.83585E-001	5.99549E-003	0.00000E+000	4.09843E-003	3.59960E-001	-1.01389E+000	3.57740E+000	10	...........
	21	0.293333	6.89202E-001	5.99221E-003	0.00000E+000	4.12984E-003	3.59960E-001	-1.02596E+000	3.57740E+000	10	...........
	22	0.306667	6.94849E-001	5.99636E-003	0.00000E+000	4.16656E-003	3.59960E-001	-1.01611E+000	3.57740E+000	10	...........
	23	0.32	7.00480E-001	5.99458E-003	0.00000E+000	4.19908E-003	3.59960E-001	-1.01389E+000	3.57740E+000	10	...........
	24	0.333333	7.06075E-001	5.99193E-003	0.00000E+000	4.23076E-003	3.59960E-001	-1.02621E+000	3.57740E+000	10	...........
	25	0.346667	7.11644E-001	5.99296E-003	0.00000E+000	4.26485E-003	3.59960E-001	-1.01604E+000	3.57740E+000	10	...........
	26	0.36	7.17256E-001	5.99823E-003	0.00000E+000	4.30227E-003	3.59960E-001	-1.01367E+000	3.57740E+000	10	...........
	27	0.373333	7.22854E-001	5.99327E-003	0.00000E+000	4.33226E-003	3.59960E-001	-1.02603E+000	3.57740E+000	10	...........
	28	0.386667	7.28415E-001	5.99368E-003	0.00000E+000	4.36588E-003	3.59960E-001	-1.01622E+000	3.57740E+000	10	...........
	29	0.4	7.33987E-001	5.99293E-003	0.00000E+000	4.39873E-003	3.59960E-001	-1.01418E+000	3.57740E+000	10	...........
	30	0.413333	7.39585E-001	5.99753E-003	0.00000E+000	4.43568E-003	3.59960E-001	-1.02598E+000	3.57740E+000	10	...........
	31	0.426667	7.45182E-001	5.99572E-003	0.00000E+000	4.46791E-003	3.59960E-001	-1.01620E+000	3.57740E+000	10	...........
	32	0.44	7.50756E-001	5.99519E-003	0.00000E+000	4.50092E-003	3.59960E-001	-1.01390E+000	3.57740E+000	10	...........
	33	0.453333	7.56321E-001	5.99695E-003	0.00000E+000	4.53562E-003	3.59960E-001	-1.02611E+000	3.57740E+000	10	...........
	34	0.466667	7.61892E-001	5.99365E-003	0.00000E+000	4.56651E-003	3.59960E-001	-1.01625E+000	3.57740E+000	10	...........
	35	0.48	7.67468E-001	5.99503E-003	0.00000E+000	4.60100E-003	3.59960E-001	-1.01395E+000	3.57740E+000	10	...........
	36	0.493333	7.73023E-001	5.99079E-003	0.00000E+000	4.63101E-003	3.59960E-001	-1.02601E+000	3.57740E+000	10	...........
	37	0.506667	7.78596E-001	5.99748E-003	0.00000E+000	4.66962E-003	3.59960E-001	-1.01608E+000	3.57740E+000	10	...........
	38	0.52	7.84147E-001	5.99590E-003	0.00000E+000	4.70166E-003	3.59960E-001	-1.01377E+000	3.57740E+000	10	...........
	39	0.533333	7.89681E-001	5.99147E-003	0.00000E+000	4.73135E-003	3.59960E-001	-1.02619E+000	3.57740E+000	10	...........
	40	0.546667	7.95305E-001	5.99569E-003	0.00000E+000	4.76840E-003	3.59960E-001	-1.01603E+000	3.57740E+000	10	...........
	41	0.56	8.00833E-001	5.99685E-003	0.00000E+000	4.80247E-003	3.59960E-001	-1.01368E+000	3.57740E+000	10	...........
	42	0.573333	8.06402E-001	5.99487E-003	0.00000E+000	4.83427E-003	3.59960E-001	-1.02599E+000	3.57740E+000	10	...........
[...]
	48	0.653333	8.39833E-001	5.99536E-003	0.00000E+000	5.03510E-003	3.59960E-001	-1.02591E+000	3.57740E+000	10	...........
	49	0.666667	8.45362E-001	5.99067E-003	0.00000E+000	5.06429E-003	3.59960E-001	-1.01597E+000	3.57740E+000	10	...........
	50	0.68	8.50963E-001	5.99588E-003	0.00000E+000	5.10227E-003	3.59960E-001	-1.01359E+000	3.57740E+000	10	...........
	51	0.693333	8.56565E-001	5.99026E-003	0.00000E+000	5.13104E-003	3.59960E-001	-1.02538E+000	3.57740E+000	10	...........
	52	0.706667	8.62147E-001	5.99592E-003	0.00000E+000	5.16936E-003	3.59960E-001	-1.01573E+000	3.57740E+000	10	...........
	53	0.72	8.67703E-001	5.99521E-003	0.00000E+000	5.20206E-003	3.59960E-001	-1.01364E+000	3.57740E+000	10	...........
	54	0.733333	8.73268E-001	5.99046E-003	0.00000E+000	5.23128E-003	3.59960E-001	-1.02572E+000	3.57740E+000	10	...........
	55	0.746667	8.78823E-001	5.99767E-003	0.00000E+000	5.27089E-003	3.59960E-001	-1.01595E+000	3.57740E+000	10	...........
	56	0.76	8.84377E-001	5.99383E-003	0.00000E+000	5.30081E-003	3.59960E-001	-1.01318E+000	3.57740E+000	10	...........
	57	0.773333	8.89927E-001	5.99433E-003	0.00000E+000	5.33452E-003	3.59960E-001	-1.02549E+000	3.57740E+000	10	...........
	58	0.786667	8.95473E-001	5.99180E-003	0.00000E+000	5.36549E-003	3.59960E-001	-1.01597E+000	3.57740E+000	10	...........
	59	0.8	9.00999E-001	5.99310E-003	0.00000E+000	5.39978E-003	3.59960E-001	-1.01353E+000	3.57740E+000	10	...........
	60	0.813333	9.06508E-001	5.99433E-003	0.00000E+000	5.43391E-003	3.59960E-001	-1.02565E+000	3.57740E+000	10	...........
	61	0.826667	9.12024E-001	5.99460E-003	0.00000E+000	5.46722E-003	3.59960E-001	-1.01594E+000	3.57740E+000	10	...........
	62	0.84	9.17534E-001	5.99068E-003	0.00000E+000	5.49665E-003	3.59960E-001	-1.01359E+000	3.57740E+000	10	...........
	63	0.853333	9.23086E-001	5.99515E-003	0.00000E+000	5.53403E-003	3.59960E-001	-1.02575E+000	3.57740E+000	10	...........
	64	0.866667	9.28550E-001	5.99565E-003	0.00000E+000	5.56726E-003	3.59960E-001	-1.01626E+000	3.57740E+000	10	...........
	65	0.88	9.33996E-001	5.99247E-003	0.00000E+000	5.59694E-003	3.59960E-001	-1.01362E+000	3.57740E+000	10	...........
	66	0.893333	9.39402E-001	5.99497E-003	0.00000E+000	5.63168E-003	3.59960E-001	-1.02539E+000	3.57740E+000	10	...........
	67	0.906667	9.44842E-001	5.99366E-003	0.00000E+000	5.66306E-003	3.59960E-001	-1.01583E+000	3.57740E+000	10	...........
	68	0.92	9.50282E-001	5.99521E-003	0.00000E+000	5.69714E-003	3.59960E-001	-1.01296E+000	3.57740E+000	10	...........
	69	0.933333	9.55690E-001	5.99609E-003	0.00000E+000	5.73040E-003	3.59960E-001	-1.02508E+000	3.57740E+000	10	...........
	70	0.946667	9.61048E-001	5.99326E-003	0.00000E+000	5.75981E-003	3.59960E-001	-1.01527E+000	3.57740E+000	10	...........
	71	0.96	9.66419E-001	5.99379E-003	0.00000E+000	5.79251E-003	3.59960E-001	-1.01285E+000	3.57740E+000	10	...........
	72	0.97333	9.71771E-001	5.99446E-003	0.00000E+000	5.82524E-003	3.59960E-001	-1.02506E+000	3.57740E+000	10	...........
	73	0.98667	9.77140E-001	5.99400E-003	0.00000E+000	5.85698E-003	3.59960E-001	-1.01564E+000	3.57740E+000	10	...........
	74	1	9.82424E-001	5.99128E-003	0.00000E+000	5.88597E-003	3.59960E-001	-1.01303E+000	3.57740E+000	10	...........
	75	1.01333	9.87666E-001	5.99444E-003	0.00000E+000	5.92050E-003	3.59960E-001	-1.02498E+000	3.57740E+000	10	...........
	76	1.02667	9.92886E-001	5.99459E-003	0.00000E+000	5.95195E-003	3.59960E-001	-1.01520E+000	3.57740E+000	10	...........
	77	1.04	9.98107E-001	5.99411E-003	0.00000E+000	5.98277E-003	3.59960E-001	-1.01280E+000	3.57740E+000	10	...........
STARTTIMEOFFSET	QUANT	38.44333	Start Time Offset (s)

File: CHARGE_#20.DTA
EXPLAIN
TAG	PWR800_CHARGE
TITLE	LABEL	PWR Cyclic Charge Discharge (Cell) - Charge Step	Test &Identifier
DATE	LABEL	22-6-2017	Date
TIME	LABEL	15:35:52	Time
NOTES	NOTES	3	&Notes...
	supercap test cell
	0.6mg
	6M KOH
PSTAT	PSTAT	IFC5000-01520	Potentiostat
CAPACITY	QUANT	1.00000E-003	Capacity (A-hr)
CELLTYPE	SELECTOR	1	&Cell Type
WORKINGCONNECTION	SELECTOR	0	&Working Lead
MAXCHARGETIME	VARIABLEANDUNITS	1.00000E+002	s	1.00000E+002	second(s)	Max &Charge Time
CHARGECURRENT	QUANT	6.00000E-003	&Charge Current (A)
VOLTAGEFINISH	TWOPARAM	F	1.00000E-003	3.60000E+003	&Voltage Finish	 I (A) < 	Max Time(s)
SAMPLETIME	QUANT	1.00000E-002	Sa&mple Period (s)
CHARGESTOPAT1	MULTIPARAM	4	1.00000E+000	Charge Stop At &1	Voltage > Limit	V
CHARGESTOPAT2	MULTIPARAM	0	0.00000E+000	Charge Stop At &2	None	N/A
AESBHCSELECTOR	TOGGLE	F	Save Both Half Cells
IRCOMP	TOGGLE	F	IR &Measure
EOC	QUANT	0	Open Circuit (V)
SEQUENCER	TOGGLE	TRUE	Run as Sequence
PSTATMODEL	IQUANT	53	Pstat Model
PSTATSECTION	LABEL	IFC5000-01520	Pstat Section
PSTATSERIALNO	LABEL	01520	Pstat Serial Number
CTRLMODE	IQUANT	0	Control Mode
ELECTROMETER	IQUANT	1	RE=0 or CS=1
IESTAB	IQUANT	0	I/E Stability
CASPEED	IQUANT	4	Control Amp Speed
CONVENTION	IQUANT	1	Current Convention
ICHRANGE	IQUANT	2	Ich Range
ICHRANGEMODE	TOGGLE	T	Ich Auto Range
ICHOFFSETENABLE	TOGGLE	F	Ich Offset Enable
ICHOFFSET	QUANT	0	Ich Offset (V)
ICHFILTER	IQUANT	1	Ich Filter
VCHRANGE	IQUANT	2	Vch Range
VCHRANGEMODE	TOGGLE	T	Vch Auto Range
VCHOFFSETENABLE	TOGGLE	F	Vch Offset Enable
VCHOFFSET	QUANT	0	Vch Offset (V)
VCHFILTER	IQUANT	1	Vch Filter
IERANGELOWERLIMIT	IQUANT	9	I/E Range Lower Limit
IERANGEMODE	TOGGLE	F	I/E AutoRange
IERANGE	IQUANT	10	I/E Range
ACHSELECT	IQUANT	1	Ach Select
ACHRANGE	IQUANT	2	Ach Range
ACHOFFSETENABLE	TOGGLE	F	Ach Offset Enable
ACHOFFSET	QUANT	0	Ach Offset (V)
ACHFILTER	IQUANT	1	Ach Filter
CABLEID	IQUANT	14	Cable ID
DCCALDATE	LABEL	20-10-2016	DC Calibration Date
ACCALDATE	LABEL	12/3/2015	AC Calibration Date
FRAMEWORKVERSION	QUANT	7.01	Framework Version
INSTRUMENTVERSION	LABEL	4.00	Instrument Version
CURVE	TABLE	78
	Pt	T	Vf	Im	Vu	Pwr	Sig	Ach	Temp	IERange	Over
	#	s	V	A	V	W	V	V	deg C	#	bits
	0	0.013333	5.60550E-001	5.99452E-003	0.00000E+000	3.36023E-003	3.59960E-001	-1.01543E+000	3.57860E+000	10	...........
	1	0.026667	5.68537E-001	5.98992E-003	0.00000E+000	3.40549E-003	3.59960E-001	-1.02640E+000	3.57860E+000	10	...........
	2	0.04	5.75865E-001	5.99153E-003	0.00000E+000	3.45031E-003	3.59960E-001	-1.01958E+000	3.57860E+000	10	...........
	3	0.053333	5.82735E-001	5.99311E-003	0.00000E+000	3.49240E-003	3.59960E-001	-1.01494E+000	3.57860E+000	10	...........
	4	0.066667	5.89390E-001	5.99126E-003	0.00000E+000	3.53118E-003	3.59960E-001	-1.02651E+000	3.57860E+000	10	...........
	5	0.08	5.95828E-001	5.99641E-003	0.00000E+000	3.57283E-003	3.59960E-001	-1.01977E+000	3.57860E+000	10	...........
	6	0.093333	6.02114E-001	5.99189E-003	0.00000E+000	3.60780E-003	3.59960E-001	-1.01517E+000	3.57860E+000	10	...........
	7	0.106667	6.08292E-001	5.99316E-003	0.00000E+000	3.64559E-003	3.59960E-001	-1.02631E+000	3.57860E+000	10	...........
	8	0.12	6.14430E-001	5.99534E-003	0.00000E+000	3.68371E-003	3.59960E-001	-1.01946E+000	3.57860E+000	10	...........
	9	0.133333	6.20490E-001	5.99434E-003	0.00000E+000	3.71943E-003	3.59960E-001	-1.01504E+000	3.57860E+000	10	...........
	10	0.146667	6.26418E-001	5.99657E-003	0.00000E+000	3.75636E-003	3.59960E-001	-1.02637E+000	3.57860E+000	10	...........
	11	0.16	6.32329E-001	5.99914E-003	0.00000E+000	3.79343E-003	3.59960E-001	-1.01968E+000	3.57860E+000	10	...........
	12	0.173333	6.38183E-001	5.99237E-003	0.00000E+000	3.82423E-003	3.59960E-001	-1.01507E+000	3.57860E+000	10	...........
	13	0.186667	6.44002E-001	5.99562E-003	0.00000E+000	3.86119E-003	3.59960E-001	-1.02624E+000	3.57860E+000	10	...........
	14	0.2	6.49787E-001	5.99575E-003	0.00000E+000	3.89596E-003	3.59960E-001	-1.01950E+000	3.57860E+000	10	...........
	15	0.213333	6.55560E-001	5.99303E-003	0.00000E+000	3.92879E-003	3.59960E-001	-1.01533E+000	3.57790E+000	10	...........
	16	0.226667	6.61311E-001	5.99722E-003	0.00000E+000	3.96603E-003	3.59960E-001	-1.02652E+000	3.57740E+000	10	...........
	17	0.24	6.66981E-001	5.99359E-003	0.00000E+000	3.99761E-003	3.59960E-001	-1.01944E+000	3.57740E+000	10	...........
	18	0.253333	6.72731E-001	5.99157E-003	0.00000E+000	4.03071E-003	3.59960E-001	-1.01480E+000	3.57740E+000	10	...........
	19	0.266667	6.78418E-001	5.99299E-003	0.00000E+000	4.06575E-003	3.59960E-001	-1.02623E+000	3.57740E+000	10	...........
	20	0.28	6.84058E-001	5.99447E-003	0.00000E+000	4.10057E-003	3.59960E-001	-1.01948E+000	3.57740E+000	10	...........
	21	0.293333	6.89709E-001	5.99600E-003	0.00000E+000	4.13550E-003	3.59960E-001	-1.01501E+000	3.57740E+000	10	...........
	22	0.306667	6.95323E-001	5.99062E-003	0.00000E+000	4.16541E-003	3.59960E-001	-1.02582E+000	3.57740E+000	10	...........
	23	0.32	7.00910E-001	5.99429E-003	0.00000E+000	4.20146E-003	3.59960E-001	-1.01896E+000	3.57740E+000	10	...........
	24	0.333333	7.06522E-001	5.99003E-003	0.00000E+000	4.23208E-003	3.59960E-001	-1.01437E+000	3.57740E+000	10	...........
	25	0.346667	7.12073E-001	5.99476E-003	0.00000E+000	4.26870E-003	3.59960E-001	-1.02595E+000	3.57740E+000	10	...........
	26	0.36	7.17728E-001	5.99079E-003	0.00000E+000	4.29976E-003	3.59960E-001	-1.01889E+000	3.57740E+000	10	...........
	27	0.373333	7.23322E-001	5.99206E-003	0.00000E+000	4.33419E-003	3.59960E-001	-1.01421E+000	3.57740E+000	10	...........
	28	0.386667	7.28931E-001	5.99171E-003	0.00000E+000	4.36754E-003	3.59960E-001	-1.02570E+000	3.57740E+000	10	...........
	29	0.4	7.34522E-001	5.99366E-003	0.00000E+000	4.40247E-003	3.59960E-001	-1.01881E+000	3.57740E+000	10	...........
	30	0.413333	7.40070E-001	5.99246E-003	0.00000E+000	4.43484E-003	3.59960E-001	-1.01436E+000	3.57740E+000	10	...........
	31	0.426667	7.45679E-001	5.99458E-003	0.00000E+000	4.47003E-003	3.59960E-001	-1.02566E+000	3.57740E+000	10	...........
	32	0.44	7.51270E-001	5.99554E-003	0.00000E+000	4.50427E-003	3.59960E-001	-1.01882E+000	3.57740E+000	10	...........
	33	0.453333	7.56884E-001	5.99380E-003	0.00000E+000	4.53661E-003	3.59960E-001	-1.01431E+000	3.57740E+000	10	...........
	34	0.466667	7.62437E-001	5.99135E-003	0.00000E+000	4.56803E-003	3.59960E-001	-1.02582E+000	3.57740E+000	10	...........
	35	0.48	7.67956E-001	5.99143E-003	0.00000E+000	4.60116E-003	3.59960E-001	-1.01905E+000	3.57740E+000	10	...........
	36	0.493333	7.73543E-001	5.99472E-003	0.00000E+000	4.63717E-003	3.59960E-001	-1.01423E+000	3.57740E+000	10	...........
	37	0.506667	7.79094E-001	5.99756E-003	0.00000E+000	4.67266E-003	3.59960E-001	-1.02557E+000	3.57740E+000	10	...........
	38	0.52	7.84664E-001	5.99110E-003	0.00000E+000	4.70100E-003	3.59960E-001	-1.01869E+000	3.57740E+000	10	...........
	39	0.533333	7.90263E-001	5.99188E-003	0.00000E+000	4.73516E-003	3.59960E-001	-1.01431E+000	3.57740E+000	10	...........
	40	0.546667	7.95885E-001	5.99497E-003	0.00000E+000	4.77131E-003	3.59960E-001	-1.02596E+000	3.57740E+000	10	...........
	41	0.56	8.01481E-001	5.99459E-003	0.00000E+000	4.80455E-003	3.59960E-001	-1.01905E+000	3.57740E+000	10	...........
	42	0.573333	8.07075E-001	5.99279E-003	0.00000E+000	4.83663E-003	3.59960E-001	-1.01430E+000	3.57740E+000	10	...........
[...]
	48	0.653333	8.40503E-001	5.99380E-003	0.00000E+000	5.03781E-003	3.59960E-001	-1.01410E+000	3.57740E+000	10	...........
	49	0.666667	8.46118E-001	5.98988E-003	0.00000E+000	5.06815E-003	3.59960E-001	-1.02538E+000	3.57740E+000	10	...........
	50	0.68	8.51699E-001	5.99047E-003	0.00000E+000	5.10208E-003	3.59960E-001	-1.01857E+000	3.57740E+000	10	...........
	51	0.693333	8.57277E-001	5.99139E-003	0.00000E+000	5.13629E-003	3.59960E-001	-1.01410E+000	3.57740E+000	10	...........
	52	0.706667	8.62832E-001	5.99314E-003	0.00000E+000	5.17108E-003	3.59960E-001	-1.02527E+000	3.57740E+000	10	...........
	53	0.72	8.68413E-001	5.99458E-003	0.00000E+000	5.20577E-003	3.59960E-001	-1.01829E+000	3.57740E+000	10	...........
	54	0.733333	8.73945E-001	5.99397E-003	0.00000E+000	5.23840E-003	3.59960E-001	-1.01408E+000	3.57740E+000	10	...........
	55	0.746667	8.79504E-001	5.99245E-003	0.00000E+000	5.27038E-003	3.59960E-001	-1.02551E+000	3.57740E+000	10	...........
	56	0.76	8.85111E-001	5.99716E-003	0.00000E+000	5.30816E-003	3.59960E-001	-1.01859E+000	3.57740E+000	10	...........
	57	0.773333	8.90636E-001	5.99410E-003	0.00000E+000	5.33857E-003	3.59960E-001	-1.01396E+000	3.57740E+000	10	...........
	58	0.786667	8.96139E-001	5.99141E-003	0.00000E+000	5.36914E-003	3.59960E-001	-1.02532E+000	3.57740E+000	10	...........
	59	0.8	9.01693E-001	5.99504E-003	0.00000E+000	5.40569E-003	3.59960E-001	-1.01844E+000	3.57740E+000	10	...........
	60	0.813333	9.07218E-001	5.99415E-003	0.00000E+000	5.43800E-003	3.59960E-001	-1.01417E+000	3.57740E+000	10	...........
	61	0.826667	9.12712E-001	5.99401E-003	0.00000E+000	5.47080E-003	3.59960E-001	-1.02538E+000	3.57740E+000	10	...........
	62	0.84	9.18226E-001	5.99573E-003	0.00000E+000	5.50544E-003	3.59960E-001	-1.01834E+000	3.57740E+000	10	...........
	63	0.853333	9.23812E-001	5.99777E-003	0.00000E+000	5.54081E-003	3.59960E-001	-1.01409E+000	3.57740E+000	10	...........
	64	0.866667	9.29288E-001	5.99506E-003	0.00000E+000	5.57114E-003	3.59960E-001	-1.02539E+000	3.57740E+000	10	...........
	65	0.88	9.34732E-001	5.99643E-003	0.00000E+000	5.60506E-003	3.59960E-001	-1.01879E+000	3.57740E+000	10	...........
	66	0.893333	9.40197E-001	5.99419E-003	0.00000E+000	5.63572E-003	3.59960E-001	-1.01416E+000	3.57740E+000	10	...........
	67	0.906667	9.45675E-001	5.99565E-003	0.00000E+000	5.66994E-003	3.59960E-001	-1.02539E+000	3.57740E+000	10	...........
	68	0.92	9.51107E-001	5.99539E-003	0.00000E+000	5.70226E-003	3.59960E-001	-1.01841E+000	3.57740E+000	10	...........
	69	0.933333	9.56500E-001	5.99422E-003	0.00000E+000	5.73347E-003	3.59960E-001	-1.01394E+000	3.57740E+000	10	...........
	70	0.946667	9.61917E-001	5.99579E-003	0.00000E+000	5.76746E-003	3.59960E-001	-1.02523E+000	3.57740E+000	10	...........
	71	0.96	9.67239E-001	5.99406E-003	0.00000E+000	5.79769E-003	3.59960E-001	-1.01816E+000	3.57740E+000	10	...........
	72	0.97333	9.72589E-001	5.99523E-003	0.00000E+000	5.83089E-003	3.59960E-001	-1.01372E+000	3.57740E+000	10	...........
	73	0.98667	9.77893E-001	5.99410E-003	0.00000E+000	5.86159E-003	3.59960E-001	-1.02488E+000	3.57740E+000	10	...........
	74	1	9.83194E-001	5.99472E-003	0.00000E+000	5.89397E-003	3.59960E-001	-1.01831E+000	3.57740E+000	10	...........
	75	1.01333	9.88426E-001	5.99089E-003	0.00000E+000	5.92155E-003	3.59960E-001	-1.01383E+000	3.57740E+000	10	...........
	76	1.02667	9.93683E-001	5.99412E-003	0.00000E+000	5.95625E-003	3.59960E-001	-1.02522E+000	3.57740E+000	10	...........
	77	1.03833	9.98556E-001	5.99398E-003	0.00000E+000	5.98533E-003	3.59960E-001	-1.01641E+000	3.57740E+000	10	...........
STARTTIMEOFFSET	QUANT	40.50667	Start Time Offset (s)