Folder: Tesis/Data/CV_CRGO300517_1/PWRCCD_CRGO300517_1/CHARGE_DISCHARGE (part 74)

File: CHARGE_#147.DTA
EXPLAIN
TAG	PWR800_CHARGE
TITLE	LABEL	PWR Cyclic Charge Discharge (Cell) - Charge Step	Test &Identifier
DATE	LABEL	22-6-2017	Date
TIME	LABEL	15:41:33	Time
NOTES	NOTES	3	&Notes...
	supercap test cell
	0.6mg
	6M KOH
PSTAT	PSTAT	IFC5000-01520	Potentiostat
CAPACITY	QUANT	1.00000E-003	Capacity (A-hr)
CELLTYPE	SELECTOR	1	&Cell Type
WORKINGCONNECTION	SELECTOR	0	&Working Lead
MAXCHARGETIME	VARIABLEANDUNITS	1.00000E+002	s	1.00000E+002	second(s)	Max &Charge Time
CHARGECURRENT	QUANT	6.00000E-003	&Charge Current (A)
VOLTAGEFINISH	TWOPARAM	F	1.00000E-003	3.60000E+003	&Voltage Finish	 I (A) < 	Max Time(s)
SAMPLETIME	QUANT	1.00000E-002	Sa&mple Period (s)
CHARGESTOPAT1	MULTIPARAM	4	1.00000E+000	Charge Stop At &1	Voltage > Limit	V
CHARGESTOPAT2	MULTIPARAM	0	0.00000E+000	Charge Stop At &2	None	N/A
AESBHCSELECTOR	TOGGLE	F	Save Both Half Cells
IRCOMP	TOGGLE	F	IR &Measure
EOC	QUANT	0	Open Circuit (V)
SEQUENCER	TOGGLE	TRUE	Run as Sequence
PSTATMODEL	IQUANT	53	Pstat Model
PSTATSECTION	LABEL	IFC5000-01520	Pstat Section
PSTATSERIALNO	LABEL	01520	Pstat Serial Number
CTRLMODE	IQUANT	0	Control Mode
ELECTROMETER	IQUANT	1	RE=0 or CS=1
IESTAB	IQUANT	0	I/E Stability
CASPEED	IQUANT	4	Control Amp Speed
CONVENTION	IQUANT	1	Current Convention
ICHRANGE	IQUANT	2	Ich Range
ICHRANGEMODE	TOGGLE	T	Ich Auto Range
ICHOFFSETENABLE	TOGGLE	F	Ich Offset Enable
ICHOFFSET	QUANT	0	Ich Offset (V)
ICHFILTER	IQUANT	1	Ich Filter
VCHRANGE	IQUANT	2	Vch Range
VCHRANGEMODE	TOGGLE	T	Vch Auto Range
VCHOFFSETENABLE	TOGGLE	F	Vch Offset Enable
VCHOFFSET	QUANT	0	Vch Offset (V)
VCHFILTER	IQUANT	1	Vch Filter
IERANGELOWERLIMIT	IQUANT	9	I/E Range Lower Limit
IERANGEMODE	TOGGLE	F	I/E AutoRange
IERANGE	IQUANT	10	I/E Range
ACHSELECT	IQUANT	1	Ach Select
ACHRANGE	IQUANT	2	Ach Range
ACHOFFSETENABLE	TOGGLE	F	Ach Offset Enable
ACHOFFSET	QUANT	0	Ach Offset (V)
ACHFILTER	IQUANT	1	Ach Filter
CABLEID	IQUANT	14	Cable ID
DCCALDATE	LABEL	20-10-2016	DC Calibration Date
ACCALDATE	LABEL	12/3/2015	AC Calibration Date
FRAMEWORKVERSION	QUANT	7.01	Framework Version
INSTRUMENTVERSION	LABEL	4.00	Instrument Version
CURVE	TABLE	68
	Pt	T	Vf	Im	Vu	Pwr	Sig	Ach	Temp	IERange	Over
	#	s	V	A	V	W	V	V	deg C	#	bits
	0	0.013333	5.96995E-001	5.99266E-003	0.00000E+000	3.57759E-003	3.59960E-001	-1.07276E+000	3.57830E+000	10	...........
	1	0.026667	6.05323E-001	5.99310E-003	0.00000E+000	3.62776E-003	3.59960E-001	-1.07108E+000	3.57830E+000	10	...........
	2	0.04	6.12995E-001	5.99468E-003	0.00000E+000	3.67471E-003	3.59960E-001	-1.08270E+000	3.57830E+000	10	...........
	3	0.053333	6.20307E-001	5.99180E-003	0.00000E+000	3.71676E-003	3.59960E-001	-1.07184E+000	3.57830E+000	10	...........
	4	0.066667	6.27302E-001	5.99603E-003	0.00000E+000	3.76133E-003	3.59960E-001	-1.07055E+000	3.57830E+000	10	...........
	5	0.08	6.34122E-001	5.99137E-003	0.00000E+000	3.79926E-003	3.59960E-001	-1.08238E+000	3.57830E+000	10	...........
	6	0.093333	6.40806E-001	5.99526E-003	0.00000E+000	3.84180E-003	3.59960E-001	-1.07165E+000	3.57830E+000	10	...........
	7	0.106667	6.47381E-001	5.99220E-003	0.00000E+000	3.87923E-003	3.59960E-001	-1.07055E+000	3.57830E+000	10	...........
	8	0.12	6.53894E-001	5.99240E-003	0.00000E+000	3.91839E-003	3.59960E-001	-1.08162E+000	3.57830E+000	10	...........
	9	0.133333	6.60320E-001	5.99693E-003	0.00000E+000	3.95989E-003	3.59960E-001	-1.07181E+000	3.57830E+000	10	...........
	10	0.146667	6.66697E-001	5.99729E-003	0.00000E+000	3.99837E-003	3.59960E-001	-1.07066E+000	3.57830E+000	10	...........
	11	0.16	6.72978E-001	5.99182E-003	0.00000E+000	4.03236E-003	3.59960E-001	-1.08182E+000	3.57830E+000	10	...........
	12	0.173333	6.79242E-001	5.99327E-003	0.00000E+000	4.07088E-003	3.59960E-001	-1.07173E+000	3.57830E+000	10	...........
	13	0.186667	6.85453E-001	5.99548E-003	0.00000E+000	4.10962E-003	3.59960E-001	-1.07041E+000	3.57830E+000	10	...........
	14	0.2	6.91696E-001	5.99938E-003	0.00000E+000	4.14975E-003	3.59960E-001	-1.08214E+000	3.57830E+000	10	...........
	15	0.213333	6.97832E-001	5.99413E-003	0.00000E+000	4.18289E-003	3.59960E-001	-1.07161E+000	3.57830E+000	10	...........
	16	0.226667	7.03946E-001	5.99642E-003	0.00000E+000	4.22115E-003	3.59960E-001	-1.07076E+000	3.57830E+000	10	...........
	17	0.24	7.10058E-001	5.99219E-003	0.00000E+000	4.25480E-003	3.59960E-001	-1.08181E+000	3.57830E+000	10	...........
	18	0.253333	7.16205E-001	5.99653E-003	0.00000E+000	4.29475E-003	3.59960E-001	-1.07149E+000	3.57830E+000	10	...........
	19	0.266667	7.22343E-001	5.99529E-003	0.00000E+000	4.33066E-003	3.59960E-001	-1.07091E+000	3.57830E+000	10	...........
	20	0.28	7.28394E-001	5.99551E-003	0.00000E+000	4.36709E-003	3.59960E-001	-1.08213E+000	3.57830E+000	10	...........
	21	0.293333	7.34447E-001	5.99410E-003	0.00000E+000	4.40235E-003	3.59960E-001	-1.07188E+000	3.57830E+000	10	...........
	22	0.306667	7.40533E-001	5.98778E-003	0.00000E+000	4.43415E-003	3.59960E-001	-1.07068E+000	3.57830E+000	10	...........
	23	0.32	7.46588E-001	5.99399E-003	0.00000E+000	4.47504E-003	3.59960E-001	-1.08205E+000	3.57830E+000	10	...........
	24	0.333333	7.52670E-001	5.99986E-003	0.00000E+000	4.51592E-003	3.59960E-001	-1.07177E+000	3.57830E+000	10	...........
	25	0.346667	7.58692E-001	5.99489E-003	0.00000E+000	4.54827E-003	3.59960E-001	-1.07113E+000	3.57830E+000	10	...........
	26	0.36	7.64687E-001	5.99360E-003	0.00000E+000	4.58323E-003	3.59960E-001	-1.08239E+000	3.57830E+000	10	...........
	27	0.373333	7.70752E-001	5.99640E-003	0.00000E+000	4.62173E-003	3.59960E-001	-1.07129E+000	3.57830E+000	10	...........
	28	0.386667	7.76741E-001	5.99146E-003	0.00000E+000	4.65381E-003	3.59960E-001	-1.07062E+000	3.57830E+000	10	...........
	29	0.4	7.82772E-001	5.99215E-003	0.00000E+000	4.69049E-003	3.59960E-001	-1.08203E+000	3.57830E+000	10	...........
	30	0.413333	7.88765E-001	5.99373E-003	0.00000E+000	4.72764E-003	3.59960E-001	-1.07149E+000	3.57830E+000	10	...........
	31	0.426667	7.94786E-001	5.99515E-003	0.00000E+000	4.76486E-003	3.59960E-001	-1.07077E+000	3.57830E+000	10	...........
	32	0.44	8.00759E-001	5.99704E-003	0.00000E+000	4.80218E-003	3.59960E-001	-1.08189E+000	3.57828E+000	10	...........
	33	0.453333	8.06750E-001	5.99347E-003	0.00000E+000	4.83523E-003	3.59960E-001	-1.07149E+000	3.57710E+000	10	...........
	34	0.466667	8.12722E-001	5.99789E-003	0.00000E+000	4.87462E-003	3.59960E-001	-1.07103E+000	3.57710E+000	10	...........
	35	0.48	8.18717E-001	5.99831E-003	0.00000E+000	4.91092E-003	3.59960E-001	-1.08225E+000	3.57710E+000	10	...........
	36	0.493333	8.24693E-001	5.99166E-003	0.00000E+000	4.94128E-003	3.59960E-001	-1.07150E+000	3.57710E+000	10	...........
	37	0.506667	8.30664E-001	5.99027E-003	0.00000E+000	4.97590E-003	3.59960E-001	-1.07088E+000	3.57710E+000	10	...........
	38	0.52	8.36620E-001	5.99210E-003	0.00000E+000	5.01311E-003	3.59960E-001	-1.08195E+000	3.57710E+000	10	...........
	39	0.533333	8.42582E-001	5.99397E-003	0.00000E+000	5.05041E-003	3.59960E-001	-1.07156E+000	3.57710E+000	10	...........
	40	0.546667	8.48538E-001	5.99066E-003	0.00000E+000	5.08330E-003	3.59960E-001	-1.07099E+000	3.57710E+000	10	...........
	41	0.56	8.54520E-001	5.99580E-003	0.00000E+000	5.12354E-003	3.59960E-001	-1.08211E+000	3.57710E+000	10	...........
	42	0.573333	8.60434E-001	5.99127E-003	0.00000E+000	5.15509E-003	3.59960E-001	-1.07152E+000	3.57710E+000	10	...........
	43	0.586667	8.66335E-001	5.99277E-003	0.00000E+000	5.19174E-003	3.59960E-001	-1.07102E+000	3.57710E+000	10	...........
	44	0.6	8.72267E-001	5.99734E-003	0.00000E+000	5.23128E-003	3.59960E-001	-1.08220E+000	3.57710E+000	10	...........
	45	0.613333	8.78165E-001	5.99466E-003	0.00000E+000	5.26430E-003	3.59960E-001	-1.07158E+000	3.57710E+000	10	...........
	46	0.626667	8.84031E-001	5.99305E-003	0.00000E+000	5.29804E-003	3.59960E-001	-1.07084E+000	3.57710E+000	10	...........
	47	0.64	8.89917E-001	5.99305E-003	0.00000E+000	5.33332E-003	3.59960E-001	-1.08182E+000	3.57710E+000	10	...........
	48	0.653333	8.95794E-001	5.99695E-003	0.00000E+000	5.37203E-003	3.59960E-001	-1.07137E+000	3.57710E+000	10	...........
	49	0.666667	9.01621E-001	5.99284E-003	0.00000E+000	5.40327E-003	3.59960E-001	-1.07086E+000	3.57710E+000	10	...........
	50	0.68	9.07413E-001	5.99564E-003	0.00000E+000	5.44052E-003	3.59960E-001	-1.08184E+000	3.57710E+000	10	...........
	51	0.693333	9.13232E-001	5.99210E-003	0.00000E+000	5.47218E-003	3.59960E-001	-1.07092E+000	3.57710E+000	10	...........
	52	0.706667	9.19059E-001	5.99382E-003	0.00000E+000	5.50868E-003	3.59960E-001	-1.07030E+000	3.57710E+000	10	...........
	53	0.72	9.24826E-001	5.99265E-003	0.00000E+000	5.54216E-003	3.59960E-001	-1.08117E+000	3.57710E+000	10	...........
	54	0.733333	9.30576E-001	5.99396E-003	0.00000E+000	5.57783E-003	3.59960E-001	-1.07070E+000	3.57710E+000	10	...........
	55	0.746667	9.36254E-001	5.99559E-003	0.00000E+000	5.61339E-003	3.59960E-001	-1.07105E+000	3.57710E+000	10	...........
	56	0.76	9.41936E-001	5.99486E-003	0.00000E+000	5.64677E-003	3.59960E-001	-1.08134E+000	3.57710E+000	10	...........
	57	0.773333	9.47598E-001	5.99313E-003	0.00000E+000	5.67908E-003	3.59960E-001	-1.07036E+000	3.57710E+000	10	...........
	58	0.786667	9.53245E-001	5.99348E-003	0.00000E+000	5.71326E-003	3.59960E-001	-1.07051E+000	3.57710E+000	10	...........
	59	0.8	9.58833E-001	5.99511E-003	0.00000E+000	5.74830E-003	3.59960E-001	-1.08130E+000	3.57710E+000	10	...........
	60	0.813333	9.64371E-001	5.99239E-003	0.00000E+000	5.77889E-003	3.59960E-001	-1.07085E+000	3.57710E+000	10	...........
	61	0.826667	9.69877E-001	5.99469E-003	0.00000E+000	5.81411E-003	3.59960E-001	-1.07047E+000	3.57710E+000	10	...........
	62	0.84	9.75441E-001	5.99660E-003	0.00000E+000	5.84933E-003	3.59960E-001	-1.08143E+000	3.57710E+000	10	...........
	63	0.853333	9.80894E-001	5.99738E-003	0.00000E+000	5.88280E-003	3.59960E-001	-1.07052E+000	3.57710E+000	10	...........
	64	0.866667	9.86321E-001	5.99321E-003	0.00000E+000	5.91123E-003	3.59960E-001	-1.07082E+000	3.57710E+000	10	...........
	65	0.88	9.91737E-001	5.99663E-003	0.00000E+000	5.94708E-003	3.59960E-001	-1.08182E+000	3.57710E+000	10	...........
	66	0.893333	9.97110E-001	5.99382E-003	0.00000E+000	5.97650E-003	3.59960E-001	-1.07119E+000	3.57710E+000	10	...........
	67	0.895	1.00014E+000	5.99604E-003	0.00000E+000	5.99691E-003	3.59960E-001	-1.08475E+000	3.57710E+000	10	...........
STARTTIMEOFFSET	QUANT	280.2751	Start Time Offset (s)

File: CHARGE_#148.DTA
EXPLAIN
TAG	PWR800_CHARGE
TITLE	LABEL	PWR Cyclic Charge Discharge (Cell) - Charge Step	Test &Identifier
DATE	LABEL	22-6-2017	Date
TIME	LABEL	15:41:36	Time
NOTES	NOTES	3	&Notes...
	supercap test cell
	0.6mg
	6M KOH
PSTAT	PSTAT	IFC5000-01520	Potentiostat
CAPACITY	QUANT	1.00000E-003	Capacity (A-hr)
CELLTYPE	SELECTOR	1	&Cell Type
WORKINGCONNECTION	SELECTOR	0	&Working Lead
MAXCHARGETIME	VARIABLEANDUNITS	1.00000E+002	s	1.00000E+002	second(s)	Max &Charge Time
CHARGECURRENT	QUANT	6.00000E-003	&Charge Current (A)
VOLTAGEFINISH	TWOPARAM	F	1.00000E-003	3.60000E+003	&Voltage Finish	 I (A) < 	Max Time(s)
SAMPLETIME	QUANT	1.00000E-002	Sa&mple Period (s)
CHARGESTOPAT1	MULTIPARAM	4	1.00000E+000	Charge Stop At &1	Voltage > Limit	V
CHARGESTOPAT2	MULTIPARAM	0	0.00000E+000	Charge Stop At &2	None	N/A
AESBHCSELECTOR	TOGGLE	F	Save Both Half Cells
IRCOMP	TOGGLE	F	IR &Measure
EOC	QUANT	0	Open Circuit (V)
SEQUENCER	TOGGLE	TRUE	Run as Sequence
PSTATMODEL	IQUANT	53	Pstat Model
PSTATSECTION	LABEL	IFC5000-01520	Pstat Section
PSTATSERIALNO	LABEL	01520	Pstat Serial Number
CTRLMODE	IQUANT	0	Control Mode
ELECTROMETER	IQUANT	1	RE=0 or CS=1
IESTAB	IQUANT	0	I/E Stability
CASPEED	IQUANT	4	Control Amp Speed
CONVENTION	IQUANT	1	Current Convention
ICHRANGE	IQUANT	2	Ich Range
ICHRANGEMODE	TOGGLE	T	Ich Auto Range
ICHOFFSETENABLE	TOGGLE	F	Ich Offset Enable
ICHOFFSET	QUANT	0	Ich Offset (V)
ICHFILTER	IQUANT	1	Ich Filter
VCHRANGE	IQUANT	2	Vch Range
VCHRANGEMODE	TOGGLE	T	Vch Auto Range
VCHOFFSETENABLE	TOGGLE	F	Vch Offset Enable
VCHOFFSET	QUANT	0	Vch Offset (V)
VCHFILTER	IQUANT	1	Vch Filter
IERANGELOWERLIMIT	IQUANT	9	I/E Range Lower Limit
IERANGEMODE	TOGGLE	F	I/E AutoRange
IERANGE	IQUANT	10	I/E Range
ACHSELECT	IQUANT	1	Ach Select
ACHRANGE	IQUANT	2	Ach Range
ACHOFFSETENABLE	TOGGLE	F	Ach Offset Enable
ACHOFFSET	QUANT	0	Ach Offset (V)
ACHFILTER	IQUANT	1	Ach Filter
CABLEID	IQUANT	14	Cable ID
DCCALDATE	LABEL	20-10-2016	DC Calibration Date
ACCALDATE	LABEL	12/3/2015	AC Calibration Date
FRAMEWORKVERSION	QUANT	7.01	Framework Version
INSTRUMENTVERSION	LABEL	4.00	Instrument Version
CURVE	TABLE	67
	Pt	T	Vf	Im	Vu	Pwr	Sig	Ach	Temp	IERange	Over
	#	s	V	A	V	W	V	V	deg C	#	bits
	0	0.013333	5.97965E-001	5.99418E-003	0.00000E+000	3.58431E-003	3.59960E-001	-1.06893E+000	3.57710E+000	10	...........
	1	0.026667	6.06311E-001	5.99143E-003	0.00000E+000	3.63267E-003	3.59960E-001	-1.07159E+000	3.57710E+000	10	...........
	2	0.04	6.14016E-001	5.98936E-003	0.00000E+000	3.67756E-003	3.59960E-001	-1.07936E+000	3.57710E+000	10	...........
	3	0.053333	6.21284E-001	5.99722E-003	0.00000E+000	3.72598E-003	3.59960E-001	-1.06832E+000	3.57710E+000	10	...........
	4	0.066667	6.28273E-001	5.99869E-003	0.00000E+000	3.76882E-003	3.59960E-001	-1.07097E+000	3.57710E+000	10	...........
	5	0.08	6.35075E-001	5.99595E-003	0.00000E+000	3.80788E-003	3.59960E-001	-1.07850E+000	3.57710E+000	10	...........
	6	0.093333	6.41774E-001	5.99723E-003	0.00000E+000	3.84887E-003	3.59960E-001	-1.06750E+000	3.57710E+000	10	...........
	7	0.106667	6.48343E-001	5.99309E-003	0.00000E+000	3.88558E-003	3.59960E-001	-1.07073E+000	3.57710E+000	10	...........
	8	0.12	6.54833E-001	5.99306E-003	0.00000E+000	3.92445E-003	3.59960E-001	-1.07836E+000	3.57710E+000	10	...........
	9	0.133333	6.61220E-001	5.99285E-003	0.00000E+000	3.96259E-003	3.59960E-001	-1.06770E+000	3.57710E+000	10	...........
	10	0.146667	6.67569E-001	5.99204E-003	0.00000E+000	4.00010E-003	3.59960E-001	-1.07011E+000	3.57710E+000	10	...........
	11	0.16	6.73901E-001	5.99884E-003	0.00000E+000	4.04262E-003	3.59960E-001	-1.07797E+000	3.57710E+000	10	...........
	12	0.173333	6.80131E-001	5.99720E-003	0.00000E+000	4.07888E-003	3.59960E-001	-1.06757E+000	3.57710E+000	10	...........
	13	0.186667	6.86327E-001	5.99416E-003	0.00000E+000	4.11395E-003	3.59960E-001	-1.07019E+000	3.57710E+000	10	...........
	14	0.2	6.92563E-001	5.99942E-003	0.00000E+000	4.15498E-003	3.59960E-001	-1.07720E+000	3.57710E+000	10	...........
	15	0.213333	6.98680E-001	5.98927E-003	0.00000E+000	4.18459E-003	3.59960E-001	-1.06659E+000	3.57710E+000	10	...........
	16	0.226667	7.04801E-001	5.99688E-003	0.00000E+000	4.22661E-003	3.59960E-001	-1.06972E+000	3.57710E+000	10	...........
	17	0.24	7.10913E-001	5.99602E-003	0.00000E+000	4.26265E-003	3.59960E-001	-1.07692E+000	3.57710E+000	10	...........
	18	0.253333	7.17016E-001	5.99074E-003	0.00000E+000	4.29545E-003	3.59960E-001	-1.06613E+000	3.57710E+000	10	...........
	19	0.266667	7.23118E-001	5.99449E-003	0.00000E+000	4.33472E-003	3.59960E-001	-1.06887E+000	3.57710E+000	10	...........
	20	0.28	7.29200E-001	5.99778E-003	0.00000E+000	4.37358E-003	3.59960E-001	-1.07611E+000	3.57710E+000	10	...........
	21	0.293333	7.35244E-001	5.99467E-003	0.00000E+000	4.40754E-003	3.59960E-001	-1.06591E+000	3.57710E+000	10	...........
	22	0.306667	7.41305E-001	5.99487E-003	0.00000E+000	4.44402E-003	3.59960E-001	-1.06880E+000	3.57710E+000	10	...........
	23	0.32	7.47364E-001	5.99312E-003	0.00000E+000	4.47905E-003	3.59960E-001	-1.07604E+000	3.57710E+000	10	...........
	24	0.333333	7.53397E-001	5.99233E-003	0.00000E+000	4.51460E-003	3.59960E-001	-1.06529E+000	3.57710E+000	10	...........
	25	0.346667	7.59453E-001	5.99334E-003	0.00000E+000	4.55166E-003	3.59960E-001	-1.06830E+000	3.57710E+000	10	...........
	26	0.36	7.65457E-001	5.99154E-003	0.00000E+000	4.58627E-003	3.59960E-001	-1.07571E+000	3.57710E+000	10	...........
	27	0.373333	7.71512E-001	5.99160E-003	0.00000E+000	4.62259E-003	3.59960E-001	-1.06500E+000	3.57710E+000	10	...........
	28	0.386667	7.77534E-001	5.99370E-003	0.00000E+000	4.66031E-003	3.59960E-001	-1.06797E+000	3.57710E+000	10	...........
	29	0.4	7.83576E-001	5.99132E-003	0.00000E+000	4.69466E-003	3.59960E-001	-1.07474E+000	3.57710E+000	10	...........
	30	0.413333	7.89540E-001	5.99245E-003	0.00000E+000	4.73128E-003	3.59960E-001	-1.06463E+000	3.57710E+000	10	...........
	31	0.426667	7.95543E-001	5.99355E-003	0.00000E+000	4.76813E-003	3.59960E-001	-1.06769E+000	3.57710E+000	10	...........
	32	0.44	8.01563E-001	5.99009E-003	0.00000E+000	4.80143E-003	3.59960E-001	-1.07476E+000	3.57710E+000	10	...........
	33	0.453333	8.07512E-001	5.99337E-003	0.00000E+000	4.83972E-003	3.59960E-001	-1.06419E+000	3.57710E+000	10	...........
	34	0.466667	8.13510E-001	5.99621E-003	0.00000E+000	4.87798E-003	3.59960E-001	-1.06727E+000	3.57710E+000	10	...........
	35	0.48	8.19492E-001	5.99245E-003	0.00000E+000	4.91076E-003	3.59960E-001	-1.07431E+000	3.57710E+000	10	...........
	36	0.493333	8.25462E-001	5.99928E-003	0.00000E+000	4.95218E-003	3.59960E-001	-1.06369E+000	3.57710E+000	10	...........
	37	0.506667	8.31464E-001	5.99392E-003	0.00000E+000	4.98373E-003	3.59960E-001	-1.06717E+000	3.57710E+000	10	...........
	38	0.52	8.37400E-001	5.99631E-003	0.00000E+000	5.02131E-003	3.59960E-001	-1.07382E+000	3.57710E+000	10	...........
	39	0.533333	8.43369E-001	5.99308E-003	0.00000E+000	5.05438E-003	3.59960E-001	-1.06328E+000	3.57710E+000	10	...........
	40	0.546667	8.49328E-001	5.99391E-003	0.00000E+000	5.09079E-003	3.59960E-001	-1.06671E+000	3.57710E+000	10	...........
	41	0.56	8.55264E-001	5.99138E-003	0.00000E+000	5.12421E-003	3.59960E-001	-1.07347E+000	3.57710E+000	10	...........
	42	0.573333	8.61176E-001	5.99464E-003	0.00000E+000	5.16244E-003	3.59960E-001	-1.06315E+000	3.57710E+000	10	...........
	43	0.586667	8.67104E-001	5.99889E-003	0.00000E+000	5.20166E-003	3.59960E-001	-1.06664E+000	3.57710E+000	10	...........
	44	0.6	8.73020E-001	5.99233E-003	0.00000E+000	5.23142E-003	3.59960E-001	-1.07320E+000	3.57710E+000	10	...........
	45	0.613333	8.78862E-001	5.99285E-003	0.00000E+000	5.26689E-003	3.59960E-001	-1.06274E+000	3.57710E+000	10	...........
	46	0.626667	8.84794E-001	5.99598E-003	0.00000E+000	5.30521E-003	3.59960E-001	-1.06641E+000	3.57710E+000	10	...........
	47	0.64	8.90620E-001	5.99226E-003	0.00000E+000	5.33682E-003	3.59960E-001	-1.07334E+000	3.57710E+000	10	...........
	48	0.653333	8.96498E-001	5.99019E-003	0.00000E+000	5.37020E-003	3.59960E-001	-1.06297E+000	3.57710E+000	10	...........
	49	0.666667	9.02338E-001	5.99653E-003	0.00000E+000	5.41090E-003	3.59960E-001	-1.06606E+000	3.57710E+000	10	...........
	50	0.68	9.08165E-001	5.99724E-003	0.00000E+000	5.44649E-003	3.59960E-001	-1.07287E+000	3.57710E+000	10	...........
	51	0.693333	9.13952E-001	5.99475E-003	0.00000E+000	5.47892E-003	3.59960E-001	-1.06245E+000	3.57710E+000	10	...........
	52	0.706667	9.19744E-001	5.99453E-003	0.00000E+000	5.51344E-003	3.59960E-001	-1.06593E+000	3.57710E+000	10	...........
	53	0.72	9.25560E-001	5.99531E-003	0.00000E+000	5.54902E-003	3.59960E-001	-1.07258E+000	3.57710E+000	10	...........
	54	0.733333	9.31284E-001	5.99175E-003	0.00000E+000	5.58002E-003	3.59960E-001	-1.06215E+000	3.57710E+000	10	...........
	55	0.746667	9.36949E-001	5.99721E-003	0.00000E+000	5.61908E-003	3.59960E-001	-1.06577E+000	3.57710E+000	10	...........
	56	0.76	9.42618E-001	5.99596E-003	0.00000E+000	5.65190E-003	3.59960E-001	-1.07255E+000	3.57710E+000	10	...........
	57	0.773333	9.48332E-001	5.99546E-003	0.00000E+000	5.68569E-003	3.59960E-001	-1.06227E+000	3.57710E+000	10	...........
	58	0.786667	9.53933E-001	5.99512E-003	0.00000E+000	5.71894E-003	3.59960E-001	-1.06584E+000	3.57710E+000	10	...........
	59	0.8	9.59502E-001	5.99567E-003	0.00000E+000	5.75285E-003	3.59960E-001	-1.07205E+000	3.57710E+000	10	...........
	60	0.813333	9.65055E-001	5.98997E-003	0.00000E+000	5.78065E-003	3.59960E-001	-1.06191E+000	3.57710E+000	10	...........
	61	0.826667	9.70542E-001	5.99126E-003	0.00000E+000	5.81477E-003	3.59960E-001	-1.06580E+000	3.57710E+000	10	...........
	62	0.84	9.76090E-001	5.99316E-003	0.00000E+000	5.84986E-003	3.59960E-001	-1.07236E+000	3.57710E+000	10	...........
	63	0.853333	9.81556E-001	5.99255E-003	0.00000E+000	5.88202E-003	3.59960E-001	-1.06181E+000	3.57710E+000	10	...........
	64	0.866667	9.86983E-001	5.99544E-003	0.00000E+000	5.91740E-003	3.59960E-001	-1.06553E+000	3.57710E+000	10	...........
	65	0.88	9.92331E-001	5.99440E-003	0.00000E+000	5.94843E-003	3.59960E-001	-1.07183E+000	3.57710E+000	10	...........
	66	0.893333	9.97706E-001	5.99100E-003	0.00000E+000	5.97725E-003	3.59960E-001	-1.06180E+000	3.57830E+000	10	...........
STARTTIMEOFFSET	QUANT	282.0534	Start Time Offset (s)