Folder: Tesis/Data/CV_CRGO300517_1/PWRCCD_CRGO300517_1/CHARGE_DISCHARGE (part 101)

File: CHARGE_#201.DTA
EXPLAIN
TAG	PWR800_CHARGE
TITLE	LABEL	PWR Cyclic Charge Discharge (Cell) - Charge Step	Test &Identifier
DATE	LABEL	22-6-2017	Date
TIME	LABEL	15:43:51	Time
NOTES	NOTES	3	&Notes...
	supercap test cell
	0.6mg
	6M KOH
PSTAT	PSTAT	IFC5000-01520	Potentiostat
CAPACITY	QUANT	1.00000E-003	Capacity (A-hr)
CELLTYPE	SELECTOR	1	&Cell Type
WORKINGCONNECTION	SELECTOR	0	&Working Lead
MAXCHARGETIME	VARIABLEANDUNITS	1.00000E+002	s	1.00000E+002	second(s)	Max &Charge Time
CHARGECURRENT	QUANT	6.00000E-003	&Charge Current (A)
VOLTAGEFINISH	TWOPARAM	F	1.00000E-003	3.60000E+003	&Voltage Finish	 I (A) < 	Max Time(s)
SAMPLETIME	QUANT	1.00000E-002	Sa&mple Period (s)
CHARGESTOPAT1	MULTIPARAM	4	1.00000E+000	Charge Stop At &1	Voltage > Limit	V
CHARGESTOPAT2	MULTIPARAM	0	0.00000E+000	Charge Stop At &2	None	N/A
AESBHCSELECTOR	TOGGLE	F	Save Both Half Cells
IRCOMP	TOGGLE	F	IR &Measure
EOC	QUANT	0	Open Circuit (V)
SEQUENCER	TOGGLE	TRUE	Run as Sequence
PSTATMODEL	IQUANT	53	Pstat Model
PSTATSECTION	LABEL	IFC5000-01520	Pstat Section
PSTATSERIALNO	LABEL	01520	Pstat Serial Number
CTRLMODE	IQUANT	0	Control Mode
ELECTROMETER	IQUANT	1	RE=0 or CS=1
IESTAB	IQUANT	0	I/E Stability
CASPEED	IQUANT	4	Control Amp Speed
CONVENTION	IQUANT	1	Current Convention
ICHRANGE	IQUANT	2	Ich Range
ICHRANGEMODE	TOGGLE	T	Ich Auto Range
ICHOFFSETENABLE	TOGGLE	F	Ich Offset Enable
ICHOFFSET	QUANT	0	Ich Offset (V)
ICHFILTER	IQUANT	1	Ich Filter
VCHRANGE	IQUANT	2	Vch Range
VCHRANGEMODE	TOGGLE	T	Vch Auto Range
VCHOFFSETENABLE	TOGGLE	F	Vch Offset Enable
VCHOFFSET	QUANT	0	Vch Offset (V)
VCHFILTER	IQUANT	1	Vch Filter
IERANGELOWERLIMIT	IQUANT	9	I/E Range Lower Limit
IERANGEMODE	TOGGLE	F	I/E AutoRange
IERANGE	IQUANT	10	I/E Range
ACHSELECT	IQUANT	1	Ach Select
ACHRANGE	IQUANT	2	Ach Range
ACHOFFSETENABLE	TOGGLE	F	Ach Offset Enable
ACHOFFSET	QUANT	0	Ach Offset (V)
ACHFILTER	IQUANT	1	Ach Filter
CABLEID	IQUANT	14	Cable ID
DCCALDATE	LABEL	20-10-2016	DC Calibration Date
ACCALDATE	LABEL	12/3/2015	AC Calibration Date
FRAMEWORKVERSION	QUANT	7.01	Framework Version
INSTRUMENTVERSION	LABEL	4.00	Instrument Version
CURVE	TABLE	65
	Pt	T	Vf	Im	Vu	Pwr	Sig	Ach	Temp	IERange	Over
	#	s	V	A	V	W	V	V	deg C	#	bits
	0	0.013333	6.05707E-001	5.99402E-003	0.00000E+000	3.63062E-003	3.59960E-001	-1.07723E+000	3.57680E+000	10	...........
	1	0.026667	6.14195E-001	5.99185E-003	0.00000E+000	3.68017E-003	3.59960E-001	-1.08491E+000	3.57680E+000	10	...........
	2	0.04	6.22017E-001	5.99561E-003	0.00000E+000	3.72937E-003	3.59960E-001	-1.08267E+000	3.57680E+000	10	...........
	3	0.053333	6.29413E-001	5.99683E-003	0.00000E+000	3.77448E-003	3.59960E-001	-1.07728E+000	3.57680E+000	10	...........
	4	0.066667	6.36483E-001	5.99596E-003	0.00000E+000	3.81633E-003	3.59960E-001	-1.08527E+000	3.57680E+000	10	...........
	5	0.08	6.43363E-001	5.99378E-003	0.00000E+000	3.85618E-003	3.59960E-001	-1.08326E+000	3.57680E+000	10	...........
	6	0.093333	6.50130E-001	5.99445E-003	0.00000E+000	3.89717E-003	3.59960E-001	-1.07799E+000	3.57680E+000	10	...........
	7	0.106667	6.56783E-001	5.99126E-003	0.00000E+000	3.93496E-003	3.59960E-001	-1.08555E+000	3.57695E+000	10	...........
	8	0.12	6.63350E-001	5.99204E-003	0.00000E+000	3.97482E-003	3.59960E-001	-1.08329E+000	3.57710E+000	10	...........
	9	0.133333	6.69876E-001	5.99574E-003	0.00000E+000	4.01640E-003	3.59960E-001	-1.07811E+000	3.57710E+000	10	...........
	10	0.146667	6.76328E-001	5.99582E-003	0.00000E+000	4.05514E-003	3.59960E-001	-1.08612E+000	3.57710E+000	10	...........
	11	0.16	6.82732E-001	5.99059E-003	0.00000E+000	4.08997E-003	3.59960E-001	-1.08384E+000	3.57710E+000	10	...........
	12	0.173333	6.89058E-001	5.99526E-003	0.00000E+000	4.13108E-003	3.59960E-001	-1.07844E+000	3.57710E+000	10	...........
	13	0.186667	6.95373E-001	5.99299E-003	0.00000E+000	4.16736E-003	3.59960E-001	-1.08616E+000	3.57710E+000	10	...........
	14	0.2	7.01659E-001	5.99193E-003	0.00000E+000	4.20429E-003	3.59960E-001	-1.08417E+000	3.57710E+000	10	...........
	15	0.213333	7.07937E-001	5.99331E-003	0.00000E+000	4.24289E-003	3.59960E-001	-1.07898E+000	3.57710E+000	10	...........
	16	0.226667	7.14163E-001	5.99023E-003	0.00000E+000	4.27801E-003	3.59960E-001	-1.08663E+000	3.57710E+000	10	...........
	17	0.24	7.20429E-001	5.99259E-003	0.00000E+000	4.31724E-003	3.59960E-001	-1.08432E+000	3.57710E+000	10	...........
	18	0.253333	7.26633E-001	5.99261E-003	0.00000E+000	4.35443E-003	3.59960E-001	-1.07906E+000	3.57710E+000	10	...........
	19	0.266667	7.32800E-001	5.99545E-003	0.00000E+000	4.39347E-003	3.59960E-001	-1.08674E+000	3.57710E+000	10	...........
	20	0.28	7.38994E-001	5.99071E-003	0.00000E+000	4.42710E-003	3.59960E-001	-1.08453E+000	3.57710E+000	10	...........
	21	0.293333	7.45172E-001	5.99313E-003	0.00000E+000	4.46592E-003	3.59960E-001	-1.07929E+000	3.57710E+000	10	...........
	22	0.306667	7.51321E-001	5.99432E-003	0.00000E+000	4.50366E-003	3.59960E-001	-1.08704E+000	3.57710E+000	10	...........
	23	0.32	7.57454E-001	5.99263E-003	0.00000E+000	4.53915E-003	3.59960E-001	-1.08466E+000	3.57710E+000	10	...........
	24	0.333333	7.63568E-001	5.99865E-003	0.00000E+000	4.58038E-003	3.59960E-001	-1.07948E+000	3.57710E+000	10	...........
	25	0.346667	7.69688E-001	5.99551E-003	0.00000E+000	4.61467E-003	3.59960E-001	-1.08737E+000	3.57710E+000	10	...........
	26	0.36	7.75832E-001	5.99075E-003	0.00000E+000	4.64781E-003	3.59960E-001	-1.08506E+000	3.57710E+000	10	...........
	27	0.373333	7.81981E-001	5.99328E-003	0.00000E+000	4.68663E-003	3.59960E-001	-1.07992E+000	3.57710E+000	10	...........
	28	0.386667	7.88082E-001	5.99229E-003	0.00000E+000	4.72242E-003	3.59960E-001	-1.08759E+000	3.57710E+000	10	...........
	29	0.4	7.94178E-001	5.99629E-003	0.00000E+000	4.76212E-003	3.59960E-001	-1.08521E+000	3.57710E+000	10	...........
	30	0.413333	8.00279E-001	5.99263E-003	0.00000E+000	4.79578E-003	3.59960E-001	-1.08017E+000	3.57710E+000	10	...........
	31	0.426667	8.06362E-001	5.99568E-003	0.00000E+000	4.83469E-003	3.59960E-001	-1.08777E+000	3.57710E+000	10	...........
	32	0.44	8.12423E-001	5.99269E-003	0.00000E+000	4.86860E-003	3.59960E-001	-1.08530E+000	3.57710E+000	10	...........
	33	0.453333	8.18514E-001	5.99670E-003	0.00000E+000	4.90839E-003	3.59960E-001	-1.08027E+000	3.57710E+000	10	...........
	34	0.466667	8.24549E-001	5.99079E-003	0.00000E+000	4.93970E-003	3.59960E-001	-1.08816E+000	3.57710E+000	10	...........
	35	0.48	8.30620E-001	5.99627E-003	0.00000E+000	4.98063E-003	3.59960E-001	-1.08572E+000	3.57710E+000	10	...........
	36	0.493333	8.36626E-001	5.99417E-003	0.00000E+000	5.01488E-003	3.59960E-001	-1.08070E+000	3.57710E+000	10	...........
	37	0.506667	8.42643E-001	5.99345E-003	0.00000E+000	5.05034E-003	3.59960E-001	-1.08849E+000	3.57710E+000	10	...........
	38	0.52	8.48676E-001	5.99101E-003	0.00000E+000	5.08442E-003	3.59960E-001	-1.08565E+000	3.57710E+000	10	...........
	39	0.533333	8.54699E-001	5.99235E-003	0.00000E+000	5.12166E-003	3.59960E-001	-1.08074E+000	3.57710E+000	10	...........
	40	0.546667	8.60670E-001	5.99595E-003	0.00000E+000	5.16053E-003	3.59960E-001	-1.08856E+000	3.57710E+000	10	...........
	41	0.56	8.66658E-001	5.99798E-003	0.00000E+000	5.19820E-003	3.59960E-001	-1.08591E+000	3.57710E+000	10	...........
	42	0.573333	8.72662E-001	5.99088E-003	0.00000E+000	5.22801E-003	3.59960E-001	-1.08062E+000	3.57710E+000	10	...........
	43	0.586667	8.78609E-001	5.99639E-003	0.00000E+000	5.26848E-003	3.59960E-001	-1.08814E+000	3.57710E+000	10	...........
	44	0.6	8.84589E-001	5.99675E-003	0.00000E+000	5.30466E-003	3.59960E-001	-1.08564E+000	3.57710E+000	10	...........
	45	0.613333	8.90493E-001	5.98833E-003	0.00000E+000	5.33256E-003	3.59960E-001	-1.08041E+000	3.57710E+000	10	...........
	46	0.626667	8.96401E-001	5.98978E-003	0.00000E+000	5.36924E-003	3.59960E-001	-1.08843E+000	3.57710E+000	10	...........
	47	0.64	9.02294E-001	5.99681E-003	0.00000E+000	5.41088E-003	3.59960E-001	-1.08594E+000	3.57710E+000	10	...........
	48	0.653333	9.08169E-001	5.99476E-003	0.00000E+000	5.44426E-003	3.59960E-001	-1.08069E+000	3.57710E+000	10	...........
	49	0.666667	9.14016E-001	5.99696E-003	0.00000E+000	5.48132E-003	3.59960E-001	-1.08837E+000	3.57710E+000	10	...........
	50	0.68	9.19883E-001	5.99329E-003	0.00000E+000	5.51313E-003	3.59960E-001	-1.08590E+000	3.57710E+000	10	...........
	51	0.693333	9.25724E-001	5.99709E-003	0.00000E+000	5.55165E-003	3.59960E-001	-1.08083E+000	3.57710E+000	10	...........
	52	0.706667	9.31502E-001	5.99403E-003	0.00000E+000	5.58345E-003	3.59960E-001	-1.08875E+000	3.57710E+000	10	...........
	53	0.72	9.37222E-001	5.98829E-003	0.00000E+000	5.61236E-003	3.59960E-001	-1.08599E+000	3.57710E+000	10	...........
	54	0.733333	9.42950E-001	5.99435E-003	0.00000E+000	5.65238E-003	3.59960E-001	-1.08093E+000	3.57710E+000	10	...........
	55	0.746667	9.48672E-001	5.99618E-003	0.00000E+000	5.68841E-003	3.59960E-001	-1.08895E+000	3.57710E+000	10	...........
	56	0.76	9.54342E-001	5.99453E-003	0.00000E+000	5.72083E-003	3.59960E-001	-1.08631E+000	3.57710E+000	10	...........
	57	0.773333	9.59959E-001	5.99308E-003	0.00000E+000	5.75311E-003	3.59960E-001	-1.08125E+000	3.57710E+000	10	...........
	58	0.786667	9.65549E-001	5.99504E-003	0.00000E+000	5.78851E-003	3.59960E-001	-1.08893E+000	3.57710E+000	10	...........
	59	0.8	9.71116E-001	5.99360E-003	0.00000E+000	5.82048E-003	3.59960E-001	-1.08639E+000	3.57710E+000	10	...........
	60	0.813333	9.76677E-001	5.99220E-003	0.00000E+000	5.85244E-003	3.59960E-001	-1.08140E+000	3.57710E+000	10	...........
	61	0.826667	9.82160E-001	5.99343E-003	0.00000E+000	5.88650E-003	3.59960E-001	-1.08926E+000	3.57710E+000	10	...........
	62	0.84	9.87623E-001	5.99508E-003	0.00000E+000	5.92088E-003	3.59960E-001	-1.08661E+000	3.57710E+000	10	...........
	63	0.853333	9.93000E-001	5.99189E-003	0.00000E+000	5.94995E-003	3.59960E-001	-1.08152E+000	3.57710E+000	10	...........
	64	0.865	9.98099E-001	5.99451E-003	0.00000E+000	5.98311E-003	3.59960E-001	-1.09186E+000	3.57710E+000	10	...........
STARTTIMEOFFSET	QUANT	374.6867	Start Time Offset (s)

File: CHARGE_#202.DTA
EXPLAIN
TAG	PWR800_CHARGE
TITLE	LABEL	PWR Cyclic Charge Discharge (Cell) - Charge Step	Test &Identifier
DATE	LABEL	22-6-2017	Date
TIME	LABEL	15:43:53	Time
NOTES	NOTES	3	&Notes...
	supercap test cell
	0.6mg
	6M KOH
PSTAT	PSTAT	IFC5000-01520	Potentiostat
CAPACITY	QUANT	1.00000E-003	Capacity (A-hr)
CELLTYPE	SELECTOR	1	&Cell Type
WORKINGCONNECTION	SELECTOR	0	&Working Lead
MAXCHARGETIME	VARIABLEANDUNITS	1.00000E+002	s	1.00000E+002	second(s)	Max &Charge Time
CHARGECURRENT	QUANT	6.00000E-003	&Charge Current (A)
VOLTAGEFINISH	TWOPARAM	F	1.00000E-003	3.60000E+003	&Voltage Finish	 I (A) < 	Max Time(s)
SAMPLETIME	QUANT	1.00000E-002	Sa&mple Period (s)
CHARGESTOPAT1	MULTIPARAM	4	1.00000E+000	Charge Stop At &1	Voltage > Limit	V
CHARGESTOPAT2	MULTIPARAM	0	0.00000E+000	Charge Stop At &2	None	N/A
AESBHCSELECTOR	TOGGLE	F	Save Both Half Cells
IRCOMP	TOGGLE	F	IR &Measure
EOC	QUANT	0	Open Circuit (V)
SEQUENCER	TOGGLE	TRUE	Run as Sequence
PSTATMODEL	IQUANT	53	Pstat Model
PSTATSECTION	LABEL	IFC5000-01520	Pstat Section
PSTATSERIALNO	LABEL	01520	Pstat Serial Number
CTRLMODE	IQUANT	0	Control Mode
ELECTROMETER	IQUANT	1	RE=0 or CS=1
IESTAB	IQUANT	0	I/E Stability
CASPEED	IQUANT	4	Control Amp Speed
CONVENTION	IQUANT	1	Current Convention
ICHRANGE	IQUANT	2	Ich Range
ICHRANGEMODE	TOGGLE	T	Ich Auto Range
ICHOFFSETENABLE	TOGGLE	F	Ich Offset Enable
ICHOFFSET	QUANT	0	Ich Offset (V)
ICHFILTER	IQUANT	1	Ich Filter
VCHRANGE	IQUANT	2	Vch Range
VCHRANGEMODE	TOGGLE	T	Vch Auto Range
VCHOFFSETENABLE	TOGGLE	F	Vch Offset Enable
VCHOFFSET	QUANT	0	Vch Offset (V)
VCHFILTER	IQUANT	1	Vch Filter
IERANGELOWERLIMIT	IQUANT	9	I/E Range Lower Limit
IERANGEMODE	TOGGLE	F	I/E AutoRange
IERANGE	IQUANT	10	I/E Range
ACHSELECT	IQUANT	1	Ach Select
ACHRANGE	IQUANT	2	Ach Range
ACHOFFSETENABLE	TOGGLE	F	Ach Offset Enable
ACHOFFSET	QUANT	0	Ach Offset (V)
ACHFILTER	IQUANT	1	Ach Filter
CABLEID	IQUANT	14	Cable ID
DCCALDATE	LABEL	20-10-2016	DC Calibration Date
ACCALDATE	LABEL	12/3/2015	AC Calibration Date
FRAMEWORKVERSION	QUANT	7.01	Framework Version
INSTRUMENTVERSION	LABEL	4.00	Instrument Version
CURVE	TABLE	65
	Pt	T	Vf	Im	Vu	Pwr	Sig	Ach	Temp	IERange	Over
	#	s	V	A	V	W	V	V	deg C	#	bits
	0	0.013333	6.06315E-001	5.99144E-003	0.00000E+000	3.63270E-003	3.59960E-001	-1.11392E+000	3.57820E+000	10	...........
	1	0.026667	6.14815E-001	5.99723E-003	0.00000E+000	3.68719E-003	3.59960E-001	-1.10556E+000	3.57820E+000	10	...........
	2	0.04	6.22658E-001	5.99949E-003	0.00000E+000	3.73563E-003	3.59960E-001	-1.10572E+000	3.57820E+000	10	...........
	3	0.053333	6.30022E-001	5.98982E-003	0.00000E+000	3.77372E-003	3.59960E-001	-1.11517E+000	3.57820E+000	10	...........
	4	0.066667	6.37074E-001	5.99406E-003	0.00000E+000	3.81866E-003	3.59960E-001	-1.10625E+000	3.57820E+000	10	...........
	5	0.08	6.44044E-001	5.99012E-003	0.00000E+000	3.85790E-003	3.59960E-001	-1.10589E+000	3.57820E+000	10	...........
	6	0.093333	6.50769E-001	5.99603E-003	0.00000E+000	3.90203E-003	3.59960E-001	-1.11534E+000	3.57820E+000	10	...........
	7	0.106667	6.57427E-001	5.99220E-003	0.00000E+000	3.93943E-003	3.59960E-001	-1.10663E+000	3.57820E+000	10	...........
	8	0.12	6.63967E-001	5.99219E-003	0.00000E+000	3.97861E-003	3.59960E-001	-1.10604E+000	3.57820E+000	10	...........
	9	0.133333	6.70512E-001	5.99281E-003	0.00000E+000	4.01825E-003	3.59960E-001	-1.11526E+000	3.57820E+000	10	...........
	10	0.146667	6.76945E-001	5.99646E-003	0.00000E+000	4.05927E-003	3.59960E-001	-1.10597E+000	3.57820E+000	10	...........
	11	0.16	6.83307E-001	5.99237E-003	0.00000E+000	4.09463E-003	3.59960E-001	-1.10553E+000	3.57820E+000	10	...........
	12	0.173333	6.89658E-001	5.99264E-003	0.00000E+000	4.13288E-003	3.59960E-001	-1.11484E+000	3.57820E+000	10	...........
	13	0.186667	6.95973E-001	5.99863E-003	0.00000E+000	4.17488E-003	3.59960E-001	-1.10541E+000	3.57820E+000	10	...........
	14	0.2	7.02245E-001	5.99701E-003	0.00000E+000	4.21137E-003	3.59960E-001	-1.10501E+000	3.57820E+000	10	...........
	15	0.213333	7.08486E-001	5.99380E-003	0.00000E+000	4.24653E-003	3.59960E-001	-1.11421E+000	3.57820E+000	10	...........
	16	0.226667	7.14709E-001	5.99030E-003	0.00000E+000	4.28132E-003	3.59960E-001	-1.10494E+000	3.57820E+000	10	...........
	17	0.24	7.21003E-001	5.99164E-003	0.00000E+000	4.31999E-003	3.59960E-001	-1.10469E+000	3.57820E+000	10	...........
	18	0.253333	7.27158E-001	5.99635E-003	0.00000E+000	4.36029E-003	3.59960E-001	-1.11339E+000	3.57820E+000	10	...........
	19	0.266667	7.33314E-001	5.99416E-003	0.00000E+000	4.39560E-003	3.59960E-001	-1.10369E+000	3.57820E+000	10	...........
	20	0.28	7.39444E-001	5.99457E-003	0.00000E+000	4.43265E-003	3.59960E-001	-1.10323E+000	3.57820E+000	10	...........
	21	0.293333	7.45677E-001	5.99440E-003	0.00000E+000	4.46989E-003	3.59960E-001	-1.11147E+000	3.57820E+000	10	...........
	22	0.306667	7.51836E-001	5.99863E-003	0.00000E+000	4.50999E-003	3.59960E-001	-1.10155E+000	3.57820E+000	10	...........
	23	0.32	7.57993E-001	5.99596E-003	0.00000E+000	4.54490E-003	3.59960E-001	-1.10036E+000	3.57820E+000	10	...........
	24	0.333333	7.64097E-001	5.99207E-003	0.00000E+000	4.57852E-003	3.59960E-001	-1.10841E+000	3.57820E+000	10	...........
	25	0.346667	7.70269E-001	5.99285E-003	0.00000E+000	4.61611E-003	3.59960E-001	-1.09814E+000	3.57820E+000	10	...........
	26	0.36	7.76408E-001	5.99420E-003	0.00000E+000	4.65394E-003	3.59960E-001	-1.09664E+000	3.57820E+000	10	...........
	27	0.373333	7.82480E-001	5.98972E-003	0.00000E+000	4.68684E-003	3.59960E-001	-1.10396E+000	3.57820E+000	10	...........
	28	0.386667	7.88583E-001	5.99449E-003	0.00000E+000	4.72716E-003	3.59960E-001	-1.09304E+000	3.57820E+000	10	...........
	29	0.4	7.94686E-001	5.99632E-003	0.00000E+000	4.76519E-003	3.59960E-001	-1.09093E+000	3.57820E+000	10	...........
	30	0.413333	8.00805E-001	5.99242E-003	0.00000E+000	4.79877E-003	3.59960E-001	-1.09817E+000	3.57820E+000	10	...........
	31	0.426667	8.06899E-001	5.99056E-003	0.00000E+000	4.83377E-003	3.59960E-001	-1.08744E+000	3.57820E+000	10	...........
	32	0.44	8.12927E-001	5.99073E-003	0.00000E+000	4.87002E-003	3.59960E-001	-1.08580E+000	3.57820E+000	10	...........
	33	0.453333	8.19001E-001	5.99309E-003	0.00000E+000	4.90835E-003	3.59960E-001	-1.09347E+000	3.57820E+000	10	...........
	34	0.466667	8.25042E-001	5.99066E-003	0.00000E+000	4.94255E-003	3.59960E-001	-1.08293E+000	3.57820E+000	10	...........
	35	0.48	8.31088E-001	5.99488E-003	0.00000E+000	4.98227E-003	3.59960E-001	-1.08156E+000	3.57820E+000	10	...........
	36	0.493333	8.37114E-001	5.99255E-003	0.00000E+000	5.01645E-003	3.59960E-001	-1.08973E+000	3.57820E+000	10	...........
	37	0.506667	8.43163E-001	5.99609E-003	0.00000E+000	5.05568E-003	3.59960E-001	-1.07989E+000	3.57820E+000	10	...........
	38	0.52	8.49177E-001	5.99406E-003	0.00000E+000	5.09002E-003	3.59960E-001	-1.07997E+000	3.57820E+000	10	...........
	39	0.533333	8.55215E-001	5.99539E-003	0.00000E+000	5.12735E-003	3.59960E-001	-1.08831E+000	3.57820E+000	10	...........
	40	0.546667	8.61199E-001	5.99409E-003	0.00000E+000	5.16211E-003	3.59960E-001	-1.07924E+000	3.57820E+000	10	...........
	41	0.56	8.67186E-001	5.99110E-003	0.00000E+000	5.19540E-003	3.59960E-001	-1.07977E+000	3.57820E+000	10	...........
	42	0.573333	8.73168E-001	5.99593E-003	0.00000E+000	5.23546E-003	3.59960E-001	-1.08865E+000	3.57820E+000	10	...........
	43	0.586667	8.79127E-001	5.99214E-003	0.00000E+000	5.26785E-003	3.59960E-001	-1.07980E+000	3.57820E+000	10	...........
	44	0.6	8.85084E-001	5.99694E-003	0.00000E+000	5.30780E-003	3.59960E-001	-1.08016E+000	3.57986E+000	10	...........
	45	0.613333	8.90996E-001	5.99459E-003	0.00000E+000	5.34116E-003	3.59960E-001	-1.08903E+000	3.58010E+000	10	...........
	46	0.626667	8.96903E-001	5.99245E-003	0.00000E+000	5.37464E-003	3.59960E-001	-1.08008E+000	3.58010E+000	10	...........
	47	0.64	9.02745E-001	5.99241E-003	0.00000E+000	5.40962E-003	3.59960E-001	-1.08044E+000	3.58010E+000	10	...........
	48	0.653333	9.08650E-001	5.99330E-003	0.00000E+000	5.44581E-003	3.59960E-001	-1.08977E+000	3.58010E+000	10	...........
	49	0.666667	9.14491E-001	5.99460E-003	0.00000E+000	5.48201E-003	3.59960E-001	-1.08086E+000	3.58010E+000	10	...........
	50	0.68	9.20317E-001	5.99119E-003	0.00000E+000	5.51380E-003	3.59960E-001	-1.08124E+000	3.58010E+000	10	...........
	51	0.693333	9.26144E-001	5.99154E-003	0.00000E+000	5.54903E-003	3.59960E-001	-1.09040E+000	3.58010E+000	10	...........
	52	0.706667	9.31924E-001	5.99571E-003	0.00000E+000	5.58754E-003	3.59960E-001	-1.08169E+000	3.58010E+000	10	...........
	53	0.72	9.37676E-001	5.99119E-003	0.00000E+000	5.61780E-003	3.59960E-001	-1.08218E+000	3.58010E+000	10	...........
	54	0.733333	9.43394E-001	5.99579E-003	0.00000E+000	5.65640E-003	3.59960E-001	-1.09123E+000	3.58010E+000	10	...........
	55	0.746667	9.49145E-001	5.99457E-003	0.00000E+000	5.68972E-003	3.59960E-001	-1.08211E+000	3.58010E+000	10	...........
	56	0.76	9.54802E-001	5.99599E-003	0.00000E+000	5.72499E-003	3.59960E-001	-1.08271E+000	3.58010E+000	10	...........
	57	0.773333	9.60413E-001	5.99261E-003	0.00000E+000	5.75538E-003	3.59960E-001	-1.09172E+000	3.58010E+000	10	...........
	58	0.786667	9.65996E-001	5.99722E-003	0.00000E+000	5.79330E-003	3.59960E-001	-1.08269E+000	3.58010E+000	10	...........
	59	0.8	9.71582E-001	5.99485E-003	0.00000E+000	5.82448E-003	3.59960E-001	-1.08333E+000	3.58010E+000	10	...........
	60	0.813333	9.77122E-001	5.99555E-003	0.00000E+000	5.85839E-003	3.59960E-001	-1.09206E+000	3.58010E+000	10	...........
	61	0.826667	9.82626E-001	5.99670E-003	0.00000E+000	5.89252E-003	3.59960E-001	-1.08332E+000	3.58010E+000	10	...........
	62	0.84	9.88050E-001	5.99584E-003	0.00000E+000	5.92418E-003	3.59960E-001	-1.08398E+000	3.58010E+000	10	...........
	63	0.853333	9.93453E-001	5.99735E-003	0.00000E+000	5.95808E-003	3.59960E-001	-1.09330E+000	3.58010E+000	10	...........
	64	0.865	9.98493E-001	5.99123E-003	0.00000E+000	5.98220E-003	3.59960E-001	-1.08230E+000	3.58010E+000	10	...........
STARTTIMEOFFSET	QUANT	376.4067	Start Time Offset (s)