Folder: Tesis/Data/CV_CRGO300517_1/PWRCCD_CRGO300517_1/CHARGE_DISCHARGE (part 145)

File: CHARGE_#292.DTA
EXPLAIN
TAG	PWR800_CHARGE
TITLE	LABEL	PWR Cyclic Charge Discharge (Cell) - Charge Step	Test &Identifier
DATE	LABEL	22-6-2017	Date
TIME	LABEL	15:47:36	Time
NOTES	NOTES	3	&Notes...
	supercap test cell
	0.6mg
	6M KOH
PSTAT	PSTAT	IFC5000-01520	Potentiostat
CAPACITY	QUANT	1.00000E-003	Capacity (A-hr)
CELLTYPE	SELECTOR	1	&Cell Type
WORKINGCONNECTION	SELECTOR	0	&Working Lead
MAXCHARGETIME	VARIABLEANDUNITS	1.00000E+002	s	1.00000E+002	second(s)	Max &Charge Time
CHARGECURRENT	QUANT	6.00000E-003	&Charge Current (A)
VOLTAGEFINISH	TWOPARAM	F	1.00000E-003	3.60000E+003	&Voltage Finish	 I (A) < 	Max Time(s)
SAMPLETIME	QUANT	1.00000E-002	Sa&mple Period (s)
CHARGESTOPAT1	MULTIPARAM	4	1.00000E+000	Charge Stop At &1	Voltage > Limit	V
CHARGESTOPAT2	MULTIPARAM	0	0.00000E+000	Charge Stop At &2	None	N/A
AESBHCSELECTOR	TOGGLE	F	Save Both Half Cells
IRCOMP	TOGGLE	F	IR &Measure
EOC	QUANT	0	Open Circuit (V)
SEQUENCER	TOGGLE	TRUE	Run as Sequence
PSTATMODEL	IQUANT	53	Pstat Model
PSTATSECTION	LABEL	IFC5000-01520	Pstat Section
PSTATSERIALNO	LABEL	01520	Pstat Serial Number
CTRLMODE	IQUANT	0	Control Mode
ELECTROMETER	IQUANT	1	RE=0 or CS=1
IESTAB	IQUANT	0	I/E Stability
CASPEED	IQUANT	4	Control Amp Speed
CONVENTION	IQUANT	1	Current Convention
ICHRANGE	IQUANT	2	Ich Range
ICHRANGEMODE	TOGGLE	T	Ich Auto Range
ICHOFFSETENABLE	TOGGLE	F	Ich Offset Enable
ICHOFFSET	QUANT	0	Ich Offset (V)
ICHFILTER	IQUANT	1	Ich Filter
VCHRANGE	IQUANT	2	Vch Range
VCHRANGEMODE	TOGGLE	T	Vch Auto Range
VCHOFFSETENABLE	TOGGLE	F	Vch Offset Enable
VCHOFFSET	QUANT	0	Vch Offset (V)
VCHFILTER	IQUANT	1	Vch Filter
IERANGELOWERLIMIT	IQUANT	9	I/E Range Lower Limit
IERANGEMODE	TOGGLE	F	I/E AutoRange
IERANGE	IQUANT	10	I/E Range
ACHSELECT	IQUANT	1	Ach Select
ACHRANGE	IQUANT	2	Ach Range
ACHOFFSETENABLE	TOGGLE	F	Ach Offset Enable
ACHOFFSET	QUANT	0	Ach Offset (V)
ACHFILTER	IQUANT	1	Ach Filter
CABLEID	IQUANT	14	Cable ID
DCCALDATE	LABEL	20-10-2016	DC Calibration Date
ACCALDATE	LABEL	12/3/2015	AC Calibration Date
FRAMEWORKVERSION	QUANT	7.01	Framework Version
INSTRUMENTVERSION	LABEL	4.00	Instrument Version
CURVE	TABLE	63
	Pt	T	Vf	Im	Vu	Pwr	Sig	Ach	Temp	IERange	Over
	#	s	V	A	V	W	V	V	deg C	#	bits
	0	0.013333	6.15203E-001	5.99433E-003	0.00000E+000	3.68773E-003	3.59960E-001	-1.10594E+000	3.57810E+000	10	...........
	1	0.026667	6.23859E-001	5.99681E-003	0.00000E+000	3.74116E-003	3.59960E-001	-1.11493E+000	3.57810E+000	10	...........
	2	0.04	6.31729E-001	5.99336E-003	0.00000E+000	3.78618E-003	3.59960E-001	-1.10440E+000	3.57810E+000	10	...........
	3	0.053333	6.39238E-001	5.99281E-003	0.00000E+000	3.83083E-003	3.59960E-001	-1.10536E+000	3.57810E+000	10	...........
	4	0.066667	6.46446E-001	5.99254E-003	0.00000E+000	3.87385E-003	3.59960E-001	-1.11478E+000	3.57810E+000	10	...........
	5	0.08	6.53475E-001	5.99879E-003	0.00000E+000	3.92006E-003	3.59960E-001	-1.10461E+000	3.57810E+000	10	...........
	6	0.093333	6.60367E-001	5.99757E-003	0.00000E+000	3.96060E-003	3.59960E-001	-1.10550E+000	3.57810E+000	10	...........
	7	0.106667	6.67162E-001	5.99877E-003	0.00000E+000	4.00215E-003	3.59960E-001	-1.11464E+000	3.57810E+000	10	...........
	8	0.12	6.73865E-001	5.99390E-003	0.00000E+000	4.03907E-003	3.59960E-001	-1.10431E+000	3.57810E+000	10	...........
	9	0.133333	6.80502E-001	5.99625E-003	0.00000E+000	4.08046E-003	3.59960E-001	-1.10520E+000	3.57810E+000	10	...........
	10	0.146667	6.87095E-001	5.98864E-003	0.00000E+000	4.11476E-003	3.59960E-001	-1.11498E+000	3.57810E+000	10	...........
	11	0.16	6.93647E-001	5.99608E-003	0.00000E+000	4.15916E-003	3.59960E-001	-1.10460E+000	3.57810E+000	10	...........
	12	0.173333	7.00163E-001	5.99548E-003	0.00000E+000	4.19781E-003	3.59960E-001	-1.10504E+000	3.57810E+000	10	...........
	13	0.186667	7.06592E-001	5.99406E-003	0.00000E+000	4.23536E-003	3.59960E-001	-1.11477E+000	3.57810E+000	10	...........
	14	0.2	7.13004E-001	5.99388E-003	0.00000E+000	4.27366E-003	3.59960E-001	-1.10462E+000	3.57810E+000	10	...........
	15	0.213333	7.19449E-001	5.99224E-003	0.00000E+000	4.31111E-003	3.59960E-001	-1.10499E+000	3.57810E+000	10	...........
	16	0.226667	7.25811E-001	5.99442E-003	0.00000E+000	4.35082E-003	3.59960E-001	-1.11461E+000	3.57810E+000	10	...........
	17	0.24	7.32144E-001	5.99798E-003	0.00000E+000	4.39139E-003	3.59960E-001	-1.10430E+000	3.57810E+000	10	...........
	18	0.253333	7.38455E-001	5.99465E-003	0.00000E+000	4.42678E-003	3.59960E-001	-1.10438E+000	3.57810E+000	10	...........
	19	0.266667	7.44796E-001	5.99429E-003	0.00000E+000	4.46452E-003	3.59960E-001	-1.11456E+000	3.57810E+000	10	...........
	20	0.28	7.51109E-001	5.99375E-003	0.00000E+000	4.50196E-003	3.59960E-001	-1.10436E+000	3.57810E+000	10	...........
	21	0.293333	7.57423E-001	5.99458E-003	0.00000E+000	4.54044E-003	3.59960E-001	-1.10444E+000	3.57810E+000	10	...........
	22	0.306667	7.63715E-001	5.99462E-003	0.00000E+000	4.57818E-003	3.59960E-001	-1.11433E+000	3.57810E+000	10	...........
	23	0.32	7.69924E-001	5.99579E-003	0.00000E+000	4.61631E-003	3.59960E-001	-1.10422E+000	3.57810E+000	10	...........
	24	0.333333	7.76201E-001	5.99570E-003	0.00000E+000	4.65387E-003	3.59960E-001	-1.10427E+000	3.57810E+000	10	...........
	25	0.346667	7.82509E-001	5.99696E-003	0.00000E+000	4.69267E-003	3.59960E-001	-1.11462E+000	3.57810E+000	10	...........
	26	0.36	7.88711E-001	5.99232E-003	0.00000E+000	4.72621E-003	3.59960E-001	-1.10462E+000	3.57810E+000	10	...........
	27	0.373333	7.94971E-001	5.99346E-003	0.00000E+000	4.76462E-003	3.59960E-001	-1.10451E+000	3.57810E+000	10	...........
	28	0.386667	8.01184E-001	5.99916E-003	0.00000E+000	4.80644E-003	3.59960E-001	-1.11464E+000	3.57810E+000	10	...........
	29	0.4	8.07371E-001	5.99560E-003	0.00000E+000	4.84067E-003	3.59960E-001	-1.10478E+000	3.57810E+000	10	...........
	30	0.413333	8.13574E-001	5.99191E-003	0.00000E+000	4.87486E-003	3.59960E-001	-1.10468E+000	3.57810E+000	10	...........
	31	0.426667	8.19804E-001	5.99256E-003	0.00000E+000	4.91272E-003	3.59960E-001	-1.11472E+000	3.57810E+000	10	...........
	32	0.44	8.25947E-001	5.99508E-003	0.00000E+000	4.95162E-003	3.59960E-001	-1.10453E+000	3.57810E+000	10	...........
	33	0.453333	8.32099E-001	5.99426E-003	0.00000E+000	4.98782E-003	3.59960E-001	-1.10397E+000	3.57810E+000	10	...........
	34	0.466667	8.38230E-001	5.99523E-003	0.00000E+000	5.02538E-003	3.59960E-001	-1.11477E+000	3.57810E+000	10	...........
	35	0.48	8.44356E-001	5.99175E-003	0.00000E+000	5.05917E-003	3.59960E-001	-1.10484E+000	3.57810E+000	10	...........
	36	0.493333	8.50476E-001	5.99453E-003	0.00000E+000	5.09821E-003	3.59960E-001	-1.10427E+000	3.57810E+000	10	...........
	37	0.506667	8.56602E-001	5.99147E-003	0.00000E+000	5.13230E-003	3.59960E-001	-1.11454E+000	3.57810E+000	10	...........
	38	0.52	8.62707E-001	5.99668E-003	0.00000E+000	5.17338E-003	3.59960E-001	-1.10483E+000	3.57810E+000	10	...........
	39	0.533333	8.68808E-001	5.99458E-003	0.00000E+000	5.20814E-003	3.59960E-001	-1.10424E+000	3.57810E+000	10	...........
	40	0.546667	8.74853E-001	5.99084E-003	0.00000E+000	5.24110E-003	3.59960E-001	-1.11471E+000	3.57810E+000	10	...........
	41	0.56	8.80881E-001	5.99359E-003	0.00000E+000	5.27964E-003	3.59960E-001	-1.10479E+000	3.57810E+000	10	...........
	42	0.573333	8.86933E-001	5.99150E-003	0.00000E+000	5.31406E-003	3.59960E-001	-1.10361E+000	3.57810E+000	10	...........
	43	0.586667	8.92938E-001	5.99497E-003	0.00000E+000	5.35314E-003	3.59960E-001	-1.11423E+000	3.57810E+000	10	...........
	44	0.6	8.98952E-001	5.99449E-003	0.00000E+000	5.38876E-003	3.59960E-001	-1.10490E+000	3.57810E+000	10	...........
	45	0.613333	9.04935E-001	5.99614E-003	0.00000E+000	5.42612E-003	3.59960E-001	-1.10373E+000	3.57810E+000	10	...........
	46	0.626667	9.10909E-001	5.99214E-003	0.00000E+000	5.45829E-003	3.59960E-001	-1.11436E+000	3.57810E+000	10	...........
	47	0.64	9.16831E-001	5.99457E-003	0.00000E+000	5.49601E-003	3.59960E-001	-1.10476E+000	3.57810E+000	10	...........
	48	0.653333	9.22769E-001	5.99788E-003	0.00000E+000	5.53466E-003	3.59960E-001	-1.10378E+000	3.57810E+000	10	...........
	49	0.666667	9.28623E-001	5.99402E-003	0.00000E+000	5.56618E-003	3.59960E-001	-1.11450E+000	3.57810E+000	10	...........
	50	0.68	9.34456E-001	5.99425E-003	0.00000E+000	5.60136E-003	3.59960E-001	-1.10507E+000	3.57810E+000	10	...........
	51	0.693333	9.40232E-001	5.99028E-003	0.00000E+000	5.63225E-003	3.59960E-001	-1.10375E+000	3.57810E+000	10	...........
	52	0.706667	9.46047E-001	5.98812E-003	0.00000E+000	5.66504E-003	3.59960E-001	-1.11418E+000	3.57810E+000	10	...........
	53	0.72	9.51760E-001	5.99163E-003	0.00000E+000	5.70260E-003	3.59960E-001	-1.10483E+000	3.57810E+000	10	...........
	54	0.733333	9.57461E-001	5.99575E-003	0.00000E+000	5.74070E-003	3.59960E-001	-1.10379E+000	3.57810E+000	10	...........
	55	0.746667	9.63103E-001	5.99407E-003	0.00000E+000	5.77291E-003	3.59960E-001	-1.11441E+000	3.57810E+000	10	...........
	56	0.76	9.68759E-001	5.99898E-003	0.00000E+000	5.81156E-003	3.59960E-001	-1.10505E+000	3.57810E+000	10	...........
	57	0.773333	9.74365E-001	5.99141E-003	0.00000E+000	5.83782E-003	3.59960E-001	-1.10363E+000	3.57810E+000	10	...........
	58	0.786667	9.79920E-001	5.99233E-003	0.00000E+000	5.87201E-003	3.59960E-001	-1.11436E+000	3.57810E+000	10	...........
	59	0.8	9.85462E-001	5.99442E-003	0.00000E+000	5.90727E-003	3.59960E-001	-1.10528E+000	3.57810E+000	10	...........
	60	0.813333	9.90924E-001	5.99294E-003	0.00000E+000	5.93855E-003	3.59960E-001	-1.10396E+000	3.57810E+000	10	...........
	61	0.826667	9.96400E-001	5.99314E-003	0.00000E+000	5.97157E-003	3.59960E-001	-1.11444E+000	3.57810E+000	10	...........
	62	0.83	9.99754E-001	5.99200E-003	0.00000E+000	5.99052E-003	3.59960E-001	-1.09279E+000	3.57810E+000	10	...........
STARTTIMEOFFSET	QUANT	527.9432	Start Time Offset (s)

File: CHARGE_#293.DTA
EXPLAIN
TAG	PWR800_CHARGE
TITLE	LABEL	PWR Cyclic Charge Discharge (Cell) - Charge Step	Test &Identifier
DATE	LABEL	22-6-2017	Date
TIME	LABEL	15:47:38	Time
NOTES	NOTES	3	&Notes...
	supercap test cell
	0.6mg
	6M KOH
PSTAT	PSTAT	IFC5000-01520	Potentiostat
CAPACITY	QUANT	1.00000E-003	Capacity (A-hr)
CELLTYPE	SELECTOR	1	&Cell Type
WORKINGCONNECTION	SELECTOR	0	&Working Lead
MAXCHARGETIME	VARIABLEANDUNITS	1.00000E+002	s	1.00000E+002	second(s)	Max &Charge Time
CHARGECURRENT	QUANT	6.00000E-003	&Charge Current (A)
VOLTAGEFINISH	TWOPARAM	F	1.00000E-003	3.60000E+003	&Voltage Finish	 I (A) < 	Max Time(s)
SAMPLETIME	QUANT	1.00000E-002	Sa&mple Period (s)
CHARGESTOPAT1	MULTIPARAM	4	1.00000E+000	Charge Stop At &1	Voltage > Limit	V
CHARGESTOPAT2	MULTIPARAM	0	0.00000E+000	Charge Stop At &2	None	N/A
AESBHCSELECTOR	TOGGLE	F	Save Both Half Cells
IRCOMP	TOGGLE	F	IR &Measure
EOC	QUANT	0	Open Circuit (V)
SEQUENCER	TOGGLE	TRUE	Run as Sequence
PSTATMODEL	IQUANT	53	Pstat Model
PSTATSECTION	LABEL	IFC5000-01520	Pstat Section
PSTATSERIALNO	LABEL	01520	Pstat Serial Number
CTRLMODE	IQUANT	0	Control Mode
ELECTROMETER	IQUANT	1	RE=0 or CS=1
IESTAB	IQUANT	0	I/E Stability
CASPEED	IQUANT	4	Control Amp Speed
CONVENTION	IQUANT	1	Current Convention
ICHRANGE	IQUANT	2	Ich Range
ICHRANGEMODE	TOGGLE	T	Ich Auto Range
ICHOFFSETENABLE	TOGGLE	F	Ich Offset Enable
ICHOFFSET	QUANT	0	Ich Offset (V)
ICHFILTER	IQUANT	1	Ich Filter
VCHRANGE	IQUANT	2	Vch Range
VCHRANGEMODE	TOGGLE	T	Vch Auto Range
VCHOFFSETENABLE	TOGGLE	F	Vch Offset Enable
VCHOFFSET	QUANT	0	Vch Offset (V)
VCHFILTER	IQUANT	1	Vch Filter
IERANGELOWERLIMIT	IQUANT	9	I/E Range Lower Limit
IERANGEMODE	TOGGLE	F	I/E AutoRange
IERANGE	IQUANT	10	I/E Range
ACHSELECT	IQUANT	1	Ach Select
ACHRANGE	IQUANT	2	Ach Range
ACHOFFSETENABLE	TOGGLE	F	Ach Offset Enable
ACHOFFSET	QUANT	0	Ach Offset (V)
ACHFILTER	IQUANT	1	Ach Filter
CABLEID	IQUANT	14	Cable ID
DCCALDATE	LABEL	20-10-2016	DC Calibration Date
ACCALDATE	LABEL	12/3/2015	AC Calibration Date
FRAMEWORKVERSION	QUANT	7.01	Framework Version
INSTRUMENTVERSION	LABEL	4.00	Instrument Version
CURVE	TABLE	63
	Pt	T	Vf	Im	Vu	Pwr	Sig	Ach	Temp	IERange	Over
	#	s	V	A	V	W	V	V	deg C	#	bits
	0	0.013333	6.15739E-001	5.99498E-003	0.00000E+000	3.69135E-003	3.59960E-001	-1.11004E+000	3.57710E+000	10	...........
	1	0.026667	6.24354E-001	5.99093E-003	0.00000E+000	3.74046E-003	3.59960E-001	-1.10524E+000	3.57710E+000	10	...........
	2	0.04	6.32241E-001	5.99171E-003	0.00000E+000	3.78820E-003	3.59960E-001	-1.11396E+000	3.57710E+000	10	...........
	3	0.053333	6.39795E-001	5.99325E-003	0.00000E+000	3.83445E-003	3.59960E-001	-1.10926E+000	3.57710E+000	10	...........
	4	0.066667	6.46981E-001	5.99782E-003	0.00000E+000	3.88047E-003	3.59960E-001	-1.10448E+000	3.57710E+000	10	...........
	5	0.08	6.54049E-001	5.99403E-003	0.00000E+000	3.92039E-003	3.59960E-001	-1.11343E+000	3.57710E+000	10	...........
	6	0.093333	6.60932E-001	5.99125E-003	0.00000E+000	3.95981E-003	3.59960E-001	-1.10965E+000	3.57710E+000	10	...........
	7	0.106667	6.67750E-001	5.99143E-003	0.00000E+000	4.00078E-003	3.59960E-001	-1.10453E+000	3.57710E+000	10	...........
	8	0.12	6.74442E-001	5.99223E-003	0.00000E+000	4.04141E-003	3.59960E-001	-1.11315E+000	3.57710E+000	10	...........
	9	0.133333	6.81050E-001	5.99518E-003	0.00000E+000	4.08302E-003	3.59960E-001	-1.10934E+000	3.57710E+000	10	...........
	10	0.146667	6.87631E-001	5.99295E-003	0.00000E+000	4.12094E-003	3.59960E-001	-1.10434E+000	3.57710E+000	10	...........
	11	0.16	6.94212E-001	5.99554E-003	0.00000E+000	4.16218E-003	3.59960E-001	-1.11321E+000	3.57710E+000	10	...........
	12	0.173333	7.00667E-001	5.99566E-003	0.00000E+000	4.20096E-003	3.59960E-001	-1.10953E+000	3.57710E+000	10	...........
	13	0.186667	7.07083E-001	5.99271E-003	0.00000E+000	4.23734E-003	3.59960E-001	-1.10438E+000	3.57710E+000	10	...........
	14	0.2	7.13508E-001	5.99495E-003	0.00000E+000	4.27744E-003	3.59960E-001	-1.11271E+000	3.57710E+000	10	...........
	15	0.213333	7.19960E-001	5.99713E-003	0.00000E+000	4.31770E-003	3.59960E-001	-1.10950E+000	3.57710E+000	10	...........
	16	0.226667	7.26320E-001	5.98914E-003	0.00000E+000	4.35003E-003	3.59960E-001	-1.10434E+000	3.57710E+000	10	...........
	17	0.24	7.32711E-001	5.99383E-003	0.00000E+000	4.39175E-003	3.59960E-001	-1.11282E+000	3.57710E+000	10	...........
	18	0.253333	7.39026E-001	5.99335E-003	0.00000E+000	4.42925E-003	3.59960E-001	-1.10955E+000	3.57698E+000	10	...........
	19	0.266667	7.45384E-001	5.99508E-003	0.00000E+000	4.46864E-003	3.59960E-001	-1.10428E+000	3.57690E+000	10	...........
	20	0.28	7.51692E-001	5.99245E-003	0.00000E+000	4.50447E-003	3.59960E-001	-1.11279E+000	3.57690E+000	10	...........
	21	0.293333	7.58027E-001	5.99506E-003	0.00000E+000	4.54442E-003	3.59960E-001	-1.10965E+000	3.57690E+000	10	...........
	22	0.306667	7.64258E-001	5.99855E-003	0.00000E+000	4.58444E-003	3.59960E-001	-1.10438E+000	3.57690E+000	10	...........
	23	0.32	7.70518E-001	5.99579E-003	0.00000E+000	4.61987E-003	3.59960E-001	-1.11251E+000	3.57690E+000	10	...........
	24	0.333333	7.76779E-001	5.99328E-003	0.00000E+000	4.65545E-003	3.59960E-001	-1.10967E+000	3.57690E+000	10	...........
	25	0.346667	7.83045E-001	5.99241E-003	0.00000E+000	4.69233E-003	3.59960E-001	-1.10438E+000	3.57690E+000	10	...........
	26	0.36	7.89249E-001	5.99541E-003	0.00000E+000	4.73187E-003	3.59960E-001	-1.11232E+000	3.57690E+000	10	...........
	27	0.373333	7.95518E-001	5.99273E-003	0.00000E+000	4.76733E-003	3.59960E-001	-1.10943E+000	3.57690E+000	10	...........
	28	0.386667	8.01734E-001	5.99656E-003	0.00000E+000	4.80764E-003	3.59960E-001	-1.10368E+000	3.57690E+000	10	...........
	29	0.4	8.07889E-001	5.99608E-003	0.00000E+000	4.84416E-003	3.59960E-001	-1.11202E+000	3.57690E+000	10	...........
	30	0.413333	8.14059E-001	5.99633E-003	0.00000E+000	4.88136E-003	3.59960E-001	-1.10922E+000	3.57690E+000	10	...........
	31	0.426667	8.20267E-001	5.99260E-003	0.00000E+000	4.91554E-003	3.59960E-001	-1.10392E+000	3.57690E+000	10	...........
	32	0.44	8.26465E-001	5.99584E-003	0.00000E+000	4.95535E-003	3.59960E-001	-1.11188E+000	3.57690E+000	10	...........
	33	0.453333	8.32616E-001	5.99228E-003	0.00000E+000	4.98927E-003	3.59960E-001	-1.10923E+000	3.57690E+000	10	...........
	34	0.466667	8.38764E-001	5.99411E-003	0.00000E+000	5.02765E-003	3.59960E-001	-1.10351E+000	3.57690E+000	10	...........
	35	0.48	8.44887E-001	5.99486E-003	0.00000E+000	5.06497E-003	3.59960E-001	-1.11156E+000	3.57690E+000	10	...........
	36	0.493333	8.51028E-001	5.99368E-003	0.00000E+000	5.10078E-003	3.59960E-001	-1.10945E+000	3.57690E+000	10	...........
	37	0.506667	8.57140E-001	5.99540E-003	0.00000E+000	5.13889E-003	3.59960E-001	-1.10359E+000	3.57690E+000	10	...........
	38	0.52	8.63208E-001	5.99589E-003	0.00000E+000	5.17570E-003	3.59960E-001	-1.11117E+000	3.57690E+000	10	...........
	39	0.533333	8.69329E-001	5.99699E-003	0.00000E+000	5.21336E-003	3.59960E-001	-1.10922E+000	3.57690E+000	10	...........
	40	0.546667	8.75455E-001	5.99585E-003	0.00000E+000	5.24910E-003	3.59960E-001	-1.10351E+000	3.57690E+000	10	...........
	41	0.56	8.81531E-001	5.99494E-003	0.00000E+000	5.28473E-003	3.59960E-001	-1.11141E+000	3.57690E+000	10	...........
	42	0.573333	8.87516E-001	5.99901E-003	0.00000E+000	5.32422E-003	3.59960E-001	-1.10939E+000	3.57690E+000	10	...........
	43	0.586667	8.93507E-001	5.99367E-003	0.00000E+000	5.35538E-003	3.59960E-001	-1.10338E+000	3.57690E+000	10	...........
	44	0.6	8.99508E-001	5.99309E-003	0.00000E+000	5.39083E-003	3.59960E-001	-1.11114E+000	3.57690E+000	10	...........
	45	0.613333	9.05470E-001	5.99031E-003	0.00000E+000	5.42405E-003	3.59960E-001	-1.10964E+000	3.57690E+000	10	...........
	46	0.626667	9.11457E-001	5.99249E-003	0.00000E+000	5.46190E-003	3.59960E-001	-1.10377E+000	3.57690E+000	10	...........
	47	0.64	9.17337E-001	5.99523E-003	0.00000E+000	5.49965E-003	3.59960E-001	-1.11125E+000	3.57690E+000	10	...........
	48	0.653333	9.23286E-001	5.99495E-003	0.00000E+000	5.53505E-003	3.59960E-001	-1.10939E+000	3.57690E+000	10	...........
	49	0.666667	9.29124E-001	5.99373E-003	0.00000E+000	5.56892E-003	3.59960E-001	-1.10326E+000	3.57690E+000	10	...........
	50	0.68	9.34942E-001	5.99762E-003	0.00000E+000	5.60743E-003	3.59960E-001	-1.11097E+000	3.57690E+000	10	...........
	51	0.693333	9.40737E-001	5.98923E-003	0.00000E+000	5.63429E-003	3.59960E-001	-1.10929E+000	3.57690E+000	10	...........
	52	0.706667	9.46528E-001	5.99058E-003	0.00000E+000	5.67025E-003	3.59960E-001	-1.10310E+000	3.57690E+000	10	...........
	53	0.72	9.52271E-001	5.99737E-003	0.00000E+000	5.71112E-003	3.59960E-001	-1.11032E+000	3.57690E+000	10	...........
	54	0.733333	9.57930E-001	5.99426E-003	0.00000E+000	5.74208E-003	3.59960E-001	-1.10934E+000	3.57690E+000	10	...........
	55	0.746667	9.63573E-001	5.99495E-003	0.00000E+000	5.77657E-003	3.59960E-001	-1.10320E+000	3.57690E+000	10	...........
	56	0.76	9.69208E-001	5.99564E-003	0.00000E+000	5.81102E-003	3.59960E-001	-1.11064E+000	3.57690E+000	10	...........
	57	0.773333	9.74862E-001	5.99472E-003	0.00000E+000	5.84403E-003	3.59960E-001	-1.10938E+000	3.57690E+000	10	...........
	58	0.786667	9.80432E-001	5.99163E-003	0.00000E+000	5.87439E-003	3.59960E-001	-1.10296E+000	3.57690E+000	10	...........
	59	0.8	9.85939E-001	5.99552E-003	0.00000E+000	5.91122E-003	3.59960E-001	-1.11039E+000	3.57690E+000	10	...........
	60	0.813333	9.91411E-001	5.99714E-003	0.00000E+000	5.94563E-003	3.59960E-001	-1.10954E+000	3.57690E+000	10	...........
	61	0.826667	9.96835E-001	5.99508E-003	0.00000E+000	5.97611E-003	3.59960E-001	-1.10319E+000	3.57690E+000	10	...........
	62	0.83	1.00017E+000	5.98645E-003	0.00000E+000	5.98746E-003	3.59960E-001	-1.11769E+000	3.57690E+000	10	...........
STARTTIMEOFFSET	QUANT	529.5933	Start Time Offset (s)