Folder: Tesis/Data/CV_CRGO300517_1/PWRCCD_CRGO300517_1/CHARGE_DISCHARGE (part 146)

File: CHARGE_#294.DTA
EXPLAIN
TAG	PWR800_CHARGE
TITLE	LABEL	PWR Cyclic Charge Discharge (Cell) - Charge Step	Test &Identifier
DATE	LABEL	22-6-2017	Date
TIME	LABEL	15:47:41	Time
NOTES	NOTES	3	&Notes...
	supercap test cell
	0.6mg
	6M KOH
PSTAT	PSTAT	IFC5000-01520	Potentiostat
CAPACITY	QUANT	1.00000E-003	Capacity (A-hr)
CELLTYPE	SELECTOR	1	&Cell Type
WORKINGCONNECTION	SELECTOR	0	&Working Lead
MAXCHARGETIME	VARIABLEANDUNITS	1.00000E+002	s	1.00000E+002	second(s)	Max &Charge Time
CHARGECURRENT	QUANT	6.00000E-003	&Charge Current (A)
VOLTAGEFINISH	TWOPARAM	F	1.00000E-003	3.60000E+003	&Voltage Finish	 I (A) < 	Max Time(s)
SAMPLETIME	QUANT	1.00000E-002	Sa&mple Period (s)
CHARGESTOPAT1	MULTIPARAM	4	1.00000E+000	Charge Stop At &1	Voltage > Limit	V
CHARGESTOPAT2	MULTIPARAM	0	0.00000E+000	Charge Stop At &2	None	N/A
AESBHCSELECTOR	TOGGLE	F	Save Both Half Cells
IRCOMP	TOGGLE	F	IR &Measure
EOC	QUANT	0	Open Circuit (V)
SEQUENCER	TOGGLE	TRUE	Run as Sequence
PSTATMODEL	IQUANT	53	Pstat Model
PSTATSECTION	LABEL	IFC5000-01520	Pstat Section
PSTATSERIALNO	LABEL	01520	Pstat Serial Number
CTRLMODE	IQUANT	0	Control Mode
ELECTROMETER	IQUANT	1	RE=0 or CS=1
IESTAB	IQUANT	0	I/E Stability
CASPEED	IQUANT	4	Control Amp Speed
CONVENTION	IQUANT	1	Current Convention
ICHRANGE	IQUANT	2	Ich Range
ICHRANGEMODE	TOGGLE	T	Ich Auto Range
ICHOFFSETENABLE	TOGGLE	F	Ich Offset Enable
ICHOFFSET	QUANT	0	Ich Offset (V)
ICHFILTER	IQUANT	1	Ich Filter
VCHRANGE	IQUANT	2	Vch Range
VCHRANGEMODE	TOGGLE	T	Vch Auto Range
VCHOFFSETENABLE	TOGGLE	F	Vch Offset Enable
VCHOFFSET	QUANT	0	Vch Offset (V)
VCHFILTER	IQUANT	1	Vch Filter
IERANGELOWERLIMIT	IQUANT	9	I/E Range Lower Limit
IERANGEMODE	TOGGLE	F	I/E AutoRange
IERANGE	IQUANT	10	I/E Range
ACHSELECT	IQUANT	1	Ach Select
ACHRANGE	IQUANT	2	Ach Range
ACHOFFSETENABLE	TOGGLE	F	Ach Offset Enable
ACHOFFSET	QUANT	0	Ach Offset (V)
ACHFILTER	IQUANT	1	Ach Filter
CABLEID	IQUANT	14	Cable ID
DCCALDATE	LABEL	20-10-2016	DC Calibration Date
ACCALDATE	LABEL	12/3/2015	AC Calibration Date
FRAMEWORKVERSION	QUANT	7.01	Framework Version
INSTRUMENTVERSION	LABEL	4.00	Instrument Version
CURVE	TABLE	63
	Pt	T	Vf	Im	Vu	Pwr	Sig	Ach	Temp	IERange	Over
	#	s	V	A	V	W	V	V	deg C	#	bits
	0	0.013333	6.15527E-001	5.99279E-003	0.00000E+000	3.68872E-003	3.59960E-001	-1.10879E+000	3.57700E+000	10	...........
	1	0.026667	6.24168E-001	5.99594E-003	0.00000E+000	3.74247E-003	3.59960E-001	-1.10469E+000	3.57700E+000	10	...........
	2	0.04	6.32055E-001	5.99308E-003	0.00000E+000	3.78796E-003	3.59960E-001	-1.11459E+000	3.57700E+000	10	...........
	3	0.053333	6.39576E-001	5.99286E-003	0.00000E+000	3.83289E-003	3.59960E-001	-1.10859E+000	3.57700E+000	10	...........
	4	0.066667	6.46822E-001	5.99306E-003	0.00000E+000	3.87644E-003	3.59960E-001	-1.10446E+000	3.57700E+000	10	...........
	5	0.08	6.53921E-001	5.99286E-003	0.00000E+000	3.91886E-003	3.59960E-001	-1.11440E+000	3.57700E+000	10	...........
	6	0.093333	6.60834E-001	5.99622E-003	0.00000E+000	3.96250E-003	3.59960E-001	-1.10886E+000	3.57700E+000	10	...........
	7	0.106667	6.67620E-001	5.99103E-003	0.00000E+000	3.99973E-003	3.59960E-001	-1.10458E+000	3.57700E+000	10	...........
	8	0.12	6.74331E-001	5.99568E-003	0.00000E+000	4.04307E-003	3.59960E-001	-1.11431E+000	3.57700E+000	10	...........
	9	0.133333	6.80952E-001	5.99487E-003	0.00000E+000	4.08222E-003	3.59960E-001	-1.10852E+000	3.57700E+000	10	...........
	10	0.146667	6.87536E-001	5.98963E-003	0.00000E+000	4.11809E-003	3.59960E-001	-1.10447E+000	3.57700E+000	10	...........
	11	0.16	6.94115E-001	5.99899E-003	0.00000E+000	4.16398E-003	3.59960E-001	-1.11393E+000	3.57700E+000	10	...........
	12	0.173333	7.00597E-001	6.00015E-003	0.00000E+000	4.20369E-003	3.59960E-001	-1.10848E+000	3.57700E+000	10	...........
	13	0.186667	7.07031E-001	5.99464E-003	0.00000E+000	4.23839E-003	3.59960E-001	-1.10415E+000	3.57700E+000	10	...........
	14	0.2	7.13442E-001	5.99374E-003	0.00000E+000	4.27618E-003	3.59960E-001	-1.11372E+000	3.57700E+000	10	...........
	15	0.213333	7.19857E-001	5.99293E-003	0.00000E+000	4.31405E-003	3.59960E-001	-1.10835E+000	3.57700E+000	10	...........
	16	0.226667	7.26250E-001	5.99582E-003	0.00000E+000	4.35446E-003	3.59960E-001	-1.10389E+000	3.57700E+000	10	...........
	17	0.24	7.32564E-001	5.99250E-003	0.00000E+000	4.38989E-003	3.59960E-001	-1.11375E+000	3.57700E+000	10	...........
	18	0.253333	7.38942E-001	5.99311E-003	0.00000E+000	4.42857E-003	3.59960E-001	-1.10831E+000	3.57700E+000	10	...........
	19	0.266667	7.45254E-001	5.99217E-003	0.00000E+000	4.46569E-003	3.59960E-001	-1.10384E+000	3.57700E+000	10	...........
	20	0.28	7.51537E-001	5.99565E-003	0.00000E+000	4.50595E-003	3.59960E-001	-1.11355E+000	3.57700E+000	10	...........
	21	0.293333	7.57849E-001	5.99042E-003	0.00000E+000	4.53984E-003	3.59960E-001	-1.10841E+000	3.57700E+000	10	...........
	22	0.306667	7.64093E-001	5.99222E-003	0.00000E+000	4.57861E-003	3.59960E-001	-1.10388E+000	3.57700E+000	10	...........
	23	0.32	7.70375E-001	5.99450E-003	0.00000E+000	4.61802E-003	3.59960E-001	-1.11333E+000	3.57700E+000	10	...........
	24	0.333333	7.76631E-001	5.99506E-003	0.00000E+000	4.65595E-003	3.59960E-001	-1.10824E+000	3.57700E+000	10	...........
	25	0.346667	7.82901E-001	5.99621E-003	0.00000E+000	4.69444E-003	3.59960E-001	-1.10358E+000	3.57700E+000	10	...........
	26	0.36	7.89111E-001	5.99367E-003	0.00000E+000	4.72967E-003	3.59960E-001	-1.11346E+000	3.57700E+000	10	...........
	27	0.373333	7.95321E-001	5.99226E-003	0.00000E+000	4.76577E-003	3.59960E-001	-1.10866E+000	3.57700E+000	10	...........
	28	0.386667	8.01542E-001	5.99176E-003	0.00000E+000	4.80264E-003	3.59960E-001	-1.10378E+000	3.57700E+000	10	...........
	29	0.4	8.07749E-001	5.99717E-003	0.00000E+000	4.84421E-003	3.59960E-001	-1.11300E+000	3.57700E+000	10	...........
	30	0.413333	8.13940E-001	5.99739E-003	0.00000E+000	4.88152E-003	3.59960E-001	-1.10841E+000	3.57700E+000	10	...........
	31	0.426667	8.20161E-001	5.99732E-003	0.00000E+000	4.91877E-003	3.59960E-001	-1.10403E+000	3.57700E+000	10	...........
	32	0.44	8.26320E-001	5.99438E-003	0.00000E+000	4.95327E-003	3.59960E-001	-1.11328E+000	3.57700E+000	10	...........
	33	0.453333	8.32480E-001	5.99408E-003	0.00000E+000	4.98995E-003	3.59960E-001	-1.10824E+000	3.57700E+000	10	...........
	34	0.466667	8.38576E-001	5.99212E-003	0.00000E+000	5.02485E-003	3.59960E-001	-1.10340E+000	3.57700E+000	10	...........
	35	0.48	8.44773E-001	5.99822E-003	0.00000E+000	5.06714E-003	3.59960E-001	-1.11268E+000	3.57700E+000	10	...........
	36	0.493333	8.50919E-001	5.99332E-003	0.00000E+000	5.09983E-003	3.59960E-001	-1.10822E+000	3.57700E+000	10	...........
	37	0.506667	8.57045E-001	5.99299E-003	0.00000E+000	5.13626E-003	3.59960E-001	-1.10339E+000	3.57700E+000	10	...........
	38	0.52	8.63141E-001	5.99960E-003	0.00000E+000	5.17850E-003	3.59960E-001	-1.11264E+000	3.57700E+000	10	...........
	39	0.533333	8.69224E-001	5.99805E-003	0.00000E+000	5.21365E-003	3.59960E-001	-1.10786E+000	3.57700E+000	10	...........
	40	0.546667	8.75285E-001	5.99303E-003	0.00000E+000	5.24561E-003	3.59960E-001	-1.10325E+000	3.57700E+000	10	...........
	41	0.56	8.81359E-001	5.99117E-003	0.00000E+000	5.28037E-003	3.59960E-001	-1.11261E+000	3.57700E+000	10	...........
	42	0.573333	8.87385E-001	5.99643E-003	0.00000E+000	5.32114E-003	3.59960E-001	-1.10815E+000	3.57700E+000	10	...........
	43	0.586667	8.93408E-001	5.99219E-003	0.00000E+000	5.35347E-003	3.59960E-001	-1.10316E+000	3.57700E+000	10	...........
	44	0.6	8.99363E-001	5.99489E-003	0.00000E+000	5.39158E-003	3.59960E-001	-1.11221E+000	3.57700E+000	10	...........
	45	0.613333	9.05276E-001	5.98973E-003	0.00000E+000	5.42236E-003	3.59960E-001	-1.10806E+000	3.57700E+000	10	...........
	46	0.626667	9.11239E-001	5.99331E-003	0.00000E+000	5.46134E-003	3.59960E-001	-1.10333E+000	3.57700E+000	10	...........
	47	0.64	9.17175E-001	5.99325E-003	0.00000E+000	5.49686E-003	3.59960E-001	-1.11253E+000	3.57700E+000	10	...........
	48	0.653333	9.23123E-001	5.99649E-003	0.00000E+000	5.53550E-003	3.59960E-001	-1.10806E+000	3.57700E+000	10	...........
	49	0.666667	9.28989E-001	5.99524E-003	0.00000E+000	5.56951E-003	3.59960E-001	-1.10312E+000	3.57700E+000	10	...........
	50	0.68	9.34786E-001	5.99066E-003	0.00000E+000	5.59999E-003	3.59960E-001	-1.11227E+000	3.57700E+000	10	...........
	51	0.693333	9.40626E-001	5.99333E-003	0.00000E+000	5.63748E-003	3.59960E-001	-1.10824E+000	3.57700E+000	10	...........
	52	0.706667	9.46419E-001	5.99483E-003	0.00000E+000	5.67363E-003	3.59960E-001	-1.10354E+000	3.57700E+000	10	...........
	53	0.72	9.52140E-001	5.99419E-003	0.00000E+000	5.70731E-003	3.59960E-001	-1.11228E+000	3.57700E+000	10	...........
	54	0.733333	9.57800E-001	5.99306E-003	0.00000E+000	5.74015E-003	3.59960E-001	-1.10815E+000	3.57700E+000	10	...........
	55	0.746667	9.63463E-001	5.99525E-003	0.00000E+000	5.77620E-003	3.59960E-001	-1.10320E+000	3.57700E+000	10	...........
	56	0.76	9.69050E-001	5.99378E-003	0.00000E+000	5.80827E-003	3.59960E-001	-1.11238E+000	3.57700E+000	10	...........
	57	0.773333	9.74732E-001	5.99280E-003	0.00000E+000	5.84138E-003	3.59960E-001	-1.10862E+000	3.57700E+000	10	...........
	58	0.786667	9.80285E-001	5.99371E-003	0.00000E+000	5.87554E-003	3.59960E-001	-1.10326E+000	3.57700E+000	10	...........
	59	0.8	9.85821E-001	5.99537E-003	0.00000E+000	5.91036E-003	3.59960E-001	-1.11166E+000	3.57796E+000	10	...........
	60	0.813333	9.91259E-001	5.99444E-003	0.00000E+000	5.94204E-003	3.59960E-001	-1.10812E+000	3.57810E+000	10	...........
	61	0.826667	9.96660E-001	5.99401E-003	0.00000E+000	5.97399E-003	3.59960E-001	-1.10310E+000	3.57810E+000	10	...........
	62	0.83	1.00000E+000	5.99283E-003	0.00000E+000	5.99286E-003	3.59960E-001	-1.11713E+000	3.57810E+000	10	...........
STARTTIMEOFFSET	QUANT	531.2449	Start Time Offset (s)

File: CHARGE_#295.DTA
EXPLAIN
TAG	PWR800_CHARGE
TITLE	LABEL	PWR Cyclic Charge Discharge (Cell) - Charge Step	Test &Identifier
DATE	LABEL	22-6-2017	Date
TIME	LABEL	15:47:43	Time
NOTES	NOTES	3	&Notes...
	supercap test cell
	0.6mg
	6M KOH
PSTAT	PSTAT	IFC5000-01520	Potentiostat
CAPACITY	QUANT	1.00000E-003	Capacity (A-hr)
CELLTYPE	SELECTOR	1	&Cell Type
WORKINGCONNECTION	SELECTOR	0	&Working Lead
MAXCHARGETIME	VARIABLEANDUNITS	1.00000E+002	s	1.00000E+002	second(s)	Max &Charge Time
CHARGECURRENT	QUANT	6.00000E-003	&Charge Current (A)
VOLTAGEFINISH	TWOPARAM	F	1.00000E-003	3.60000E+003	&Voltage Finish	 I (A) < 	Max Time(s)
SAMPLETIME	QUANT	1.00000E-002	Sa&mple Period (s)
CHARGESTOPAT1	MULTIPARAM	4	1.00000E+000	Charge Stop At &1	Voltage > Limit	V
CHARGESTOPAT2	MULTIPARAM	0	0.00000E+000	Charge Stop At &2	None	N/A
AESBHCSELECTOR	TOGGLE	F	Save Both Half Cells
IRCOMP	TOGGLE	F	IR &Measure
EOC	QUANT	0	Open Circuit (V)
SEQUENCER	TOGGLE	TRUE	Run as Sequence
PSTATMODEL	IQUANT	53	Pstat Model
PSTATSECTION	LABEL	IFC5000-01520	Pstat Section
PSTATSERIALNO	LABEL	01520	Pstat Serial Number
CTRLMODE	IQUANT	0	Control Mode
ELECTROMETER	IQUANT	1	RE=0 or CS=1
IESTAB	IQUANT	0	I/E Stability
CASPEED	IQUANT	4	Control Amp Speed
CONVENTION	IQUANT	1	Current Convention
ICHRANGE	IQUANT	2	Ich Range
ICHRANGEMODE	TOGGLE	T	Ich Auto Range
ICHOFFSETENABLE	TOGGLE	F	Ich Offset Enable
ICHOFFSET	QUANT	0	Ich Offset (V)
ICHFILTER	IQUANT	1	Ich Filter
VCHRANGE	IQUANT	2	Vch Range
VCHRANGEMODE	TOGGLE	T	Vch Auto Range
VCHOFFSETENABLE	TOGGLE	F	Vch Offset Enable
VCHOFFSET	QUANT	0	Vch Offset (V)
VCHFILTER	IQUANT	1	Vch Filter
IERANGELOWERLIMIT	IQUANT	9	I/E Range Lower Limit
IERANGEMODE	TOGGLE	F	I/E AutoRange
IERANGE	IQUANT	10	I/E Range
ACHSELECT	IQUANT	1	Ach Select
ACHRANGE	IQUANT	2	Ach Range
ACHOFFSETENABLE	TOGGLE	F	Ach Offset Enable
ACHOFFSET	QUANT	0	Ach Offset (V)
ACHFILTER	IQUANT	1	Ach Filter
CABLEID	IQUANT	14	Cable ID
DCCALDATE	LABEL	20-10-2016	DC Calibration Date
ACCALDATE	LABEL	12/3/2015	AC Calibration Date
FRAMEWORKVERSION	QUANT	7.01	Framework Version
INSTRUMENTVERSION	LABEL	4.00	Instrument Version
CURVE	TABLE	63
	Pt	T	Vf	Im	Vu	Pwr	Sig	Ach	Temp	IERange	Over
	#	s	V	A	V	W	V	V	deg C	#	bits
	0	0.013333	6.15483E-001	5.99538E-003	0.00000E+000	3.69005E-003	3.59960E-001	-1.10728E+000	3.57680E+000	10	...........
	1	0.026667	6.24139E-001	5.99551E-003	0.00000E+000	3.74203E-003	3.59960E-001	-1.10667E+000	3.57680E+000	10	...........
	2	0.04	6.32015E-001	5.99500E-003	0.00000E+000	3.78893E-003	3.59960E-001	-1.11701E+000	3.57680E+000	10	...........
	3	0.053333	6.39533E-001	5.99716E-003	0.00000E+000	3.83538E-003	3.59960E-001	-1.10709E+000	3.57680E+000	10	...........
	4	0.066667	6.46776E-001	5.99315E-003	0.00000E+000	3.87622E-003	3.59960E-001	-1.10662E+000	3.57680E+000	10	...........
	5	0.08	6.53832E-001	5.99246E-003	0.00000E+000	3.91806E-003	3.59960E-001	-1.11684E+000	3.57680E+000	10	...........
	6	0.093333	6.60741E-001	5.99344E-003	0.00000E+000	3.96011E-003	3.59960E-001	-1.10699E+000	3.57680E+000	10	...........
	7	0.106667	6.67539E-001	5.99188E-003	0.00000E+000	3.99981E-003	3.59960E-001	-1.10623E+000	3.57680E+000	10	...........
	8	0.12	6.74231E-001	5.99301E-003	0.00000E+000	4.04067E-003	3.59960E-001	-1.11666E+000	3.57680E+000	10	...........
	9	0.133333	6.80886E-001	5.99319E-003	0.00000E+000	4.08068E-003	3.59960E-001	-1.10716E+000	3.57680E+000	10	...........
	10	0.146667	6.87446E-001	5.99580E-003	0.00000E+000	4.12179E-003	3.59960E-001	-1.10649E+000	3.57680E+000	10	...........
	11	0.16	6.93965E-001	5.98942E-003	0.00000E+000	4.15645E-003	3.59960E-001	-1.11665E+000	3.57680E+000	10	...........
	12	0.173333	7.00418E-001	5.99377E-003	0.00000E+000	4.19815E-003	3.59960E-001	-1.10679E+000	3.57680E+000	10	...........
	13	0.186667	7.06846E-001	5.99774E-003	0.00000E+000	4.23948E-003	3.59960E-001	-1.10643E+000	3.57680E+000	10	...........
	14	0.2	7.13265E-001	5.99250E-003	0.00000E+000	4.27424E-003	3.59960E-001	-1.11674E+000	3.57680E+000	10	...........
	15	0.213333	7.19710E-001	5.99599E-003	0.00000E+000	4.31538E-003	3.59960E-001	-1.10703E+000	3.57680E+000	10	...........
	16	0.226667	7.26080E-001	5.99454E-003	0.00000E+000	4.35252E-003	3.59960E-001	-1.10659E+000	3.57680E+000	10	...........
	17	0.24	7.32435E-001	5.99442E-003	0.00000E+000	4.39052E-003	3.59960E-001	-1.11683E+000	3.57680E+000	10	...........
	18	0.253333	7.38707E-001	5.99908E-003	0.00000E+000	4.43156E-003	3.59960E-001	-1.10718E+000	3.57680E+000	10	...........
	19	0.266667	7.45076E-001	5.99230E-003	0.00000E+000	4.46472E-003	3.59960E-001	-1.10643E+000	3.57680E+000	10	...........
	20	0.28	7.51365E-001	5.99257E-003	0.00000E+000	4.50261E-003	3.59960E-001	-1.11627E+000	3.57680E+000	10	...........
	21	0.293333	7.57689E-001	5.99514E-003	0.00000E+000	4.54245E-003	3.59960E-001	-1.10658E+000	3.57680E+000	10	...........
	22	0.306667	7.63958E-001	5.99474E-003	0.00000E+000	4.57973E-003	3.59960E-001	-1.10587E+000	3.57680E+000	10	...........
	23	0.32	7.70263E-001	5.99385E-003	0.00000E+000	4.61684E-003	3.59960E-001	-1.11616E+000	3.57680E+000	10	...........
	24	0.333333	7.76541E-001	5.99454E-003	0.00000E+000	4.65501E-003	3.59960E-001	-1.10668E+000	3.57680E+000	10	...........
	25	0.346667	7.82785E-001	5.99545E-003	0.00000E+000	4.69315E-003	3.59960E-001	-1.10587E+000	3.57680E+000	10	...........
	26	0.36	7.89002E-001	5.99119E-003	0.00000E+000	4.72707E-003	3.59960E-001	-1.11611E+000	3.57680E+000	10	...........
	27	0.373333	7.95253E-001	5.99487E-003	0.00000E+000	4.76744E-003	3.59960E-001	-1.10657E+000	3.57680E+000	10	...........
	28	0.386667	8.01441E-001	5.99504E-003	0.00000E+000	4.80467E-003	3.59960E-001	-1.10596E+000	3.57680E+000	10	...........
	29	0.4	8.07659E-001	5.99292E-003	0.00000E+000	4.84023E-003	3.59960E-001	-1.11628E+000	3.57680E+000	10	...........
	30	0.413333	8.13850E-001	5.99201E-003	0.00000E+000	4.87660E-003	3.59960E-001	-1.10658E+000	3.57680E+000	10	...........
	31	0.426667	8.20087E-001	5.99482E-003	0.00000E+000	4.91628E-003	3.59960E-001	-1.10576E+000	3.57680E+000	10	...........
	32	0.44	8.26279E-001	5.99227E-003	0.00000E+000	4.95128E-003	3.59960E-001	-1.11607E+000	3.57680E+000	10	...........
	33	0.453333	8.32436E-001	5.99421E-003	0.00000E+000	4.98979E-003	3.59960E-001	-1.10674E+000	3.57680E+000	10	...........
	34	0.466667	8.38573E-001	5.98905E-003	0.00000E+000	5.02225E-003	3.59960E-001	-1.10567E+000	3.57680E+000	10	...........
	35	0.48	8.44737E-001	5.99185E-003	0.00000E+000	5.06154E-003	3.59960E-001	-1.11613E+000	3.57680E+000	10	...........
	36	0.493333	8.50895E-001	5.98932E-003	0.00000E+000	5.09628E-003	3.59960E-001	-1.10645E+000	3.57680E+000	10	...........
	37	0.506667	8.56981E-001	5.99871E-003	0.00000E+000	5.14079E-003	3.59960E-001	-1.10565E+000	3.57680E+000	10	...........
	38	0.52	8.63086E-001	5.99313E-003	0.00000E+000	5.17259E-003	3.59960E-001	-1.11630E+000	3.57680E+000	10	...........
	39	0.533333	8.69164E-001	5.99628E-003	0.00000E+000	5.21176E-003	3.59960E-001	-1.10685E+000	3.57680E+000	10	...........
	40	0.546667	8.75239E-001	5.99094E-003	0.00000E+000	5.24351E-003	3.59960E-001	-1.10558E+000	3.57680E+000	10	...........
	41	0.56	8.81280E-001	5.99355E-003	0.00000E+000	5.28200E-003	3.59960E-001	-1.11589E+000	3.57680E+000	10	...........
	42	0.573333	8.87334E-001	5.99991E-003	0.00000E+000	5.32393E-003	3.59960E-001	-1.10641E+000	3.57680E+000	10	...........
	43	0.586667	8.93322E-001	5.99322E-003	0.00000E+000	5.35387E-003	3.59960E-001	-1.10575E+000	3.57680E+000	10	...........
	44	0.6	8.99338E-001	5.99930E-003	0.00000E+000	5.39540E-003	3.59960E-001	-1.11610E+000	3.57680E+000	10	...........
	45	0.613333	9.05283E-001	5.99315E-003	0.00000E+000	5.42549E-003	3.59960E-001	-1.10595E+000	3.57680E+000	10	...........
	46	0.626667	9.11265E-001	5.99707E-003	0.00000E+000	5.46492E-003	3.59960E-001	-1.10512E+000	3.57680E+000	10	...........
	47	0.64	9.17178E-001	5.99767E-003	0.00000E+000	5.50093E-003	3.59960E-001	-1.11579E+000	3.57680E+000	10	...........
	48	0.653333	9.23139E-001	5.99200E-003	0.00000E+000	5.53145E-003	3.59960E-001	-1.10634E+000	3.57680E+000	10	...........
	49	0.666667	9.28998E-001	5.99240E-003	0.00000E+000	5.56693E-003	3.59960E-001	-1.10532E+000	3.57680E+000	10	...........
	50	0.68	9.34791E-001	5.99200E-003	0.00000E+000	5.60127E-003	3.59960E-001	-1.11601E+000	3.57680E+000	10	...........
	51	0.693333	9.40571E-001	5.99200E-003	0.00000E+000	5.63590E-003	3.59960E-001	-1.10655E+000	3.57680E+000	10	...........
	52	0.706667	9.46340E-001	5.98995E-003	0.00000E+000	5.66853E-003	3.59960E-001	-1.10571E+000	3.57680E+000	10	...........
	53	0.72	9.52123E-001	5.99261E-003	0.00000E+000	5.70570E-003	3.59960E-001	-1.11635E+000	3.57680E+000	10	...........
	54	0.733333	9.57805E-001	5.99542E-003	0.00000E+000	5.74244E-003	3.59960E-001	-1.10725E+000	3.57680E+000	10	...........
	55	0.746667	9.63430E-001	5.99337E-003	0.00000E+000	5.77420E-003	3.59960E-001	-1.10625E+000	3.57680E+000	10	...........
	56	0.76	9.69065E-001	5.99468E-003	0.00000E+000	5.80923E-003	3.59960E-001	-1.11686E+000	3.57680E+000	10	...........
	57	0.773333	9.74683E-001	5.99657E-003	0.00000E+000	5.84475E-003	3.59960E-001	-1.10764E+000	3.57680E+000	10	...........
	58	0.786667	9.80245E-001	5.99345E-003	0.00000E+000	5.87505E-003	3.59960E-001	-1.10682E+000	3.57680E+000	10	...........
	59	0.8	9.85745E-001	5.99158E-003	0.00000E+000	5.90617E-003	3.59960E-001	-1.11759E+000	3.57680E+000	10	...........
	60	0.813333	9.91234E-001	5.99659E-003	0.00000E+000	5.94402E-003	3.59960E-001	-1.10825E+000	3.57680E+000	10	...........
	61	0.826667	9.96659E-001	5.99076E-003	0.00000E+000	5.97074E-003	3.59960E-001	-1.10706E+000	3.57680E+000	10	...........
	62	0.83	1.00005E+000	5.99371E-003	0.00000E+000	5.99403E-003	3.59960E-001	-1.11677E+000	3.57680E+000	10	...........
STARTTIMEOFFSET	QUANT	532.8966	Start Time Offset (s)