Folder: Tesis/Data/CV_CRGO300517_1/PWRCCD_CRGO300517_1/CHARGE_DISCHARGE (part 196)

File: CHARGE_#399.DTA
EXPLAIN
TAG	PWR800_CHARGE
TITLE	LABEL	PWR Cyclic Charge Discharge (Cell) - Charge Step	Test &Identifier
DATE	LABEL	22-6-2017	Date
TIME	LABEL	15:51:56	Time
NOTES	NOTES	3	&Notes...
	supercap test cell
	0.6mg
	6M KOH
PSTAT	PSTAT	IFC5000-01520	Potentiostat
CAPACITY	QUANT	1.00000E-003	Capacity (A-hr)
CELLTYPE	SELECTOR	1	&Cell Type
WORKINGCONNECTION	SELECTOR	0	&Working Lead
MAXCHARGETIME	VARIABLEANDUNITS	1.00000E+002	s	1.00000E+002	second(s)	Max &Charge Time
CHARGECURRENT	QUANT	6.00000E-003	&Charge Current (A)
VOLTAGEFINISH	TWOPARAM	F	1.00000E-003	3.60000E+003	&Voltage Finish	 I (A) < 	Max Time(s)
SAMPLETIME	QUANT	1.00000E-002	Sa&mple Period (s)
CHARGESTOPAT1	MULTIPARAM	4	1.00000E+000	Charge Stop At &1	Voltage > Limit	V
CHARGESTOPAT2	MULTIPARAM	0	0.00000E+000	Charge Stop At &2	None	N/A
AESBHCSELECTOR	TOGGLE	F	Save Both Half Cells
IRCOMP	TOGGLE	F	IR &Measure
EOC	QUANT	0	Open Circuit (V)
SEQUENCER	TOGGLE	TRUE	Run as Sequence
PSTATMODEL	IQUANT	53	Pstat Model
PSTATSECTION	LABEL	IFC5000-01520	Pstat Section
PSTATSERIALNO	LABEL	01520	Pstat Serial Number
CTRLMODE	IQUANT	0	Control Mode
ELECTROMETER	IQUANT	1	RE=0 or CS=1
IESTAB	IQUANT	0	I/E Stability
CASPEED	IQUANT	4	Control Amp Speed
CONVENTION	IQUANT	1	Current Convention
ICHRANGE	IQUANT	2	Ich Range
ICHRANGEMODE	TOGGLE	T	Ich Auto Range
ICHOFFSETENABLE	TOGGLE	F	Ich Offset Enable
ICHOFFSET	QUANT	0	Ich Offset (V)
ICHFILTER	IQUANT	1	Ich Filter
VCHRANGE	IQUANT	2	Vch Range
VCHRANGEMODE	TOGGLE	T	Vch Auto Range
VCHOFFSETENABLE	TOGGLE	F	Vch Offset Enable
VCHOFFSET	QUANT	0	Vch Offset (V)
VCHFILTER	IQUANT	1	Vch Filter
IERANGELOWERLIMIT	IQUANT	9	I/E Range Lower Limit
IERANGEMODE	TOGGLE	F	I/E AutoRange
IERANGE	IQUANT	10	I/E Range
ACHSELECT	IQUANT	1	Ach Select
ACHRANGE	IQUANT	2	Ach Range
ACHOFFSETENABLE	TOGGLE	F	Ach Offset Enable
ACHOFFSET	QUANT	0	Ach Offset (V)
ACHFILTER	IQUANT	1	Ach Filter
CABLEID	IQUANT	14	Cable ID
DCCALDATE	LABEL	20-10-2016	DC Calibration Date
ACCALDATE	LABEL	12/3/2015	AC Calibration Date
FRAMEWORKVERSION	QUANT	7.01	Framework Version
INSTRUMENTVERSION	LABEL	4.00	Instrument Version
CURVE	TABLE	60
	Pt	T	Vf	Im	Vu	Pwr	Sig	Ach	Temp	IERange	Over
	#	s	V	A	V	W	V	V	deg C	#	bits
	0	0.013333	6.24894E-001	5.99486E-003	0.00000E+000	3.74615E-003	3.59960E-001	-1.12545E+000	3.57680E+000	10	...........
	1	0.026667	6.33605E-001	5.99527E-003	0.00000E+000	3.79863E-003	3.59960E-001	-1.13242E+000	3.57680E+000	10	...........
	2	0.04	6.41682E-001	5.99316E-003	0.00000E+000	3.84570E-003	3.59960E-001	-1.12225E+000	3.57680E+000	10	...........
	3	0.053333	6.49336E-001	5.99822E-003	0.00000E+000	3.89486E-003	3.59960E-001	-1.12528E+000	3.57680E+000	10	...........
	4	0.066667	6.56677E-001	5.99513E-003	0.00000E+000	3.93686E-003	3.59960E-001	-1.13256E+000	3.57680E+000	10	...........
	5	0.08	6.63842E-001	5.99300E-003	0.00000E+000	3.97841E-003	3.59960E-001	-1.12212E+000	3.57680E+000	10	...........
	6	0.093333	6.70882E-001	5.99016E-003	0.00000E+000	4.01869E-003	3.59960E-001	-1.12506E+000	3.57680E+000	10	...........
	7	0.106667	6.77762E-001	5.99148E-003	0.00000E+000	4.06080E-003	3.59960E-001	-1.13245E+000	3.57680E+000	10	...........
	8	0.12	6.84574E-001	5.99514E-003	0.00000E+000	4.10411E-003	3.59960E-001	-1.12238E+000	3.57680E+000	10	...........
	9	0.133333	6.91311E-001	5.99901E-003	0.00000E+000	4.14718E-003	3.59960E-001	-1.12504E+000	3.57680E+000	10	...........
	10	0.146667	6.97956E-001	5.99111E-003	0.00000E+000	4.18153E-003	3.59960E-001	-1.13242E+000	3.57680E+000	10	...........
	11	0.16	7.04629E-001	5.99616E-003	0.00000E+000	4.22507E-003	3.59960E-001	-1.12222E+000	3.57680E+000	10	...........
	12	0.173333	7.11223E-001	5.99609E-003	0.00000E+000	4.26456E-003	3.59960E-001	-1.12511E+000	3.57680E+000	10	...........
	13	0.186667	7.17825E-001	5.99414E-003	0.00000E+000	4.30274E-003	3.59960E-001	-1.13230E+000	3.57680E+000	10	...........
	14	0.2	7.24380E-001	5.99191E-003	0.00000E+000	4.34042E-003	3.59960E-001	-1.12225E+000	3.57680E+000	10	...........
	15	0.213333	7.30902E-001	5.99691E-003	0.00000E+000	4.38315E-003	3.59960E-001	-1.12508E+000	3.57680E+000	10	...........
	16	0.226667	7.37374E-001	5.99290E-003	0.00000E+000	4.41901E-003	3.59960E-001	-1.13188E+000	3.57680E+000	10	...........
	17	0.24	7.43849E-001	5.99244E-003	0.00000E+000	4.45747E-003	3.59960E-001	-1.12157E+000	3.57680E+000	10	...........
	18	0.253333	7.50267E-001	5.99431E-003	0.00000E+000	4.49733E-003	3.59960E-001	-1.12477E+000	3.57680E+000	10	...........
	19	0.266667	7.56759E-001	5.99403E-003	0.00000E+000	4.53604E-003	3.59960E-001	-1.13211E+000	3.57680E+000	10	...........
	20	0.28	7.63166E-001	5.99069E-003	0.00000E+000	4.57190E-003	3.59960E-001	-1.12175E+000	3.57680E+000	10	...........
	21	0.293333	7.69584E-001	5.99579E-003	0.00000E+000	4.61427E-003	3.59960E-001	-1.12467E+000	3.57680E+000	10	...........
	22	0.306667	7.75957E-001	5.99570E-003	0.00000E+000	4.65241E-003	3.59960E-001	-1.13185E+000	3.57680E+000	10	...........
	23	0.32	7.82352E-001	5.99354E-003	0.00000E+000	4.68906E-003	3.59960E-001	-1.12174E+000	3.57680E+000	10	...........
	24	0.333333	7.88692E-001	5.99423E-003	0.00000E+000	4.72760E-003	3.59960E-001	-1.12449E+000	3.57680E+000	10	...........
	25	0.346667	7.95103E-001	5.99156E-003	0.00000E+000	4.76391E-003	3.59960E-001	-1.13196E+000	3.57680E+000	10	...........
	26	0.36	8.01426E-001	5.99223E-003	0.00000E+000	4.80232E-003	3.59960E-001	-1.12158E+000	3.57680E+000	10	...........
	27	0.373333	8.07747E-001	5.99487E-003	0.00000E+000	4.84233E-003	3.59960E-001	-1.12434E+000	3.57680E+000	10	...........
	28	0.386667	8.14010E-001	5.99628E-003	0.00000E+000	4.88104E-003	3.59960E-001	-1.13184E+000	3.57680E+000	10	...........
	29	0.4	8.20380E-001	5.99136E-003	0.00000E+000	4.91519E-003	3.59960E-001	-1.12146E+000	3.57680E+000	10	...........
	30	0.413333	8.26655E-001	5.99426E-003	0.00000E+000	4.95519E-003	3.59960E-001	-1.12445E+000	3.57680E+000	10	...........
	31	0.426667	8.32916E-001	5.99237E-003	0.00000E+000	4.99114E-003	3.59960E-001	-1.13175E+000	3.57680E+000	10	...........
	32	0.44	8.39187E-001	5.99831E-003	0.00000E+000	5.03370E-003	3.59960E-001	-1.12157E+000	3.57680E+000	10	...........
	33	0.453333	8.45399E-001	5.98955E-003	0.00000E+000	5.06356E-003	3.59960E-001	-1.12444E+000	3.57680E+000	10	...........
	34	0.466667	8.51648E-001	5.99195E-003	0.00000E+000	5.10303E-003	3.59960E-001	-1.13205E+000	3.57680E+000	10	...........
	35	0.48	8.57839E-001	5.99548E-003	0.00000E+000	5.14316E-003	3.59960E-001	-1.12164E+000	3.57680E+000	10	...........
	36	0.493333	8.64032E-001	5.99257E-003	0.00000E+000	5.17778E-003	3.59960E-001	-1.12445E+000	3.57680E+000	10	...........
	37	0.506667	8.70246E-001	5.99352E-003	0.00000E+000	5.21584E-003	3.59960E-001	-1.13184E+000	3.57680E+000	10	...........
	38	0.52	8.76420E-001	5.99369E-003	0.00000E+000	5.25298E-003	3.59960E-001	-1.12163E+000	3.57680E+000	10	...........
	39	0.533333	8.82554E-001	5.99334E-003	0.00000E+000	5.28945E-003	3.59960E-001	-1.12434E+000	3.57680E+000	10	...........
	40	0.546667	8.88644E-001	5.99263E-003	0.00000E+000	5.32532E-003	3.59960E-001	-1.13156E+000	3.57680E+000	10	...........
	41	0.56	8.94748E-001	5.99473E-003	0.00000E+000	5.36377E-003	3.59960E-001	-1.12102E+000	3.57680E+000	10	...........
	42	0.573333	9.00805E-001	5.99795E-003	0.00000E+000	5.40299E-003	3.59960E-001	-1.12407E+000	3.57680E+000	10	...........
	43	0.586667	9.06832E-001	5.99778E-003	0.00000E+000	5.43898E-003	3.59960E-001	-1.13165E+000	3.57680E+000	10	...........
	44	0.6	9.12884E-001	5.99766E-003	0.00000E+000	5.47517E-003	3.59960E-001	-1.12141E+000	3.57680E+000	10	...........
	45	0.613333	9.18846E-001	5.99073E-003	0.00000E+000	5.50456E-003	3.59960E-001	-1.12420E+000	3.57680E+000	10	...........
	46	0.626667	9.24852E-001	5.99061E-003	0.00000E+000	5.54043E-003	3.59960E-001	-1.13144E+000	3.57680E+000	10	...........
	47	0.64	9.30743E-001	5.99352E-003	0.00000E+000	5.57843E-003	3.59960E-001	-1.12107E+000	3.57680E+000	10	...........
	48	0.653333	9.36592E-001	5.99565E-003	0.00000E+000	5.61547E-003	3.59960E-001	-1.12405E+000	3.57680E+000	10	...........
	49	0.666667	9.42420E-001	5.99619E-003	0.00000E+000	5.65093E-003	3.59960E-001	-1.13171E+000	3.57680E+000	10	...........
	50	0.68	9.48282E-001	5.99687E-003	0.00000E+000	5.68672E-003	3.59960E-001	-1.12112E+000	3.57680E+000	10	...........
	51	0.693333	9.54059E-001	5.99493E-003	0.00000E+000	5.71952E-003	3.59960E-001	-1.12389E+000	3.57680E+000	10	...........
	52	0.706667	9.59769E-001	5.99309E-003	0.00000E+000	5.75198E-003	3.59960E-001	-1.13150E+000	3.57680E+000	10	...........
	53	0.72	9.65481E-001	5.99439E-003	0.00000E+000	5.78747E-003	3.59960E-001	-1.12120E+000	3.57680E+000	10	...........
	54	0.733333	9.71173E-001	5.99504E-003	0.00000E+000	5.82223E-003	3.59960E-001	-1.12407E+000	3.57680E+000	10	...........
	55	0.746667	9.76795E-001	5.99314E-003	0.00000E+000	5.85408E-003	3.59960E-001	-1.13152E+000	3.57680E+000	10	...........
	56	0.76	9.82365E-001	5.99500E-003	0.00000E+000	5.88928E-003	3.59960E-001	-1.12109E+000	3.57680E+000	10	...........
	57	0.773333	9.87916E-001	5.99528E-003	0.00000E+000	5.92283E-003	3.59960E-001	-1.12411E+000	3.57680E+000	10	...........
	58	0.786667	9.93390E-001	5.99770E-003	0.00000E+000	5.95806E-003	3.59960E-001	-1.13168E+000	3.57680E+000	10	...........
	59	0.798333	9.98505E-001	5.99440E-003	0.00000E+000	5.98544E-003	3.59960E-001	-1.11929E+000	3.57680E+000	10	...........
STARTTIMEOFFSET	QUANT	701.0817	Start Time Offset (s)

File: CHARGE_#400.DTA
EXPLAIN
TAG	PWR800_CHARGE
TITLE	LABEL	PWR Cyclic Charge Discharge (Cell) - Charge Step	Test &Identifier
DATE	LABEL	22-6-2017	Date
TIME	LABEL	15:51:58	Time
NOTES	NOTES	3	&Notes...
	supercap test cell
	0.6mg
	6M KOH
PSTAT	PSTAT	IFC5000-01520	Potentiostat
CAPACITY	QUANT	1.00000E-003	Capacity (A-hr)
CELLTYPE	SELECTOR	1	&Cell Type
WORKINGCONNECTION	SELECTOR	0	&Working Lead
MAXCHARGETIME	VARIABLEANDUNITS	1.00000E+002	s	1.00000E+002	second(s)	Max &Charge Time
CHARGECURRENT	QUANT	6.00000E-003	&Charge Current (A)
VOLTAGEFINISH	TWOPARAM	F	1.00000E-003	3.60000E+003	&Voltage Finish	 I (A) < 	Max Time(s)
SAMPLETIME	QUANT	1.00000E-002	Sa&mple Period (s)
CHARGESTOPAT1	MULTIPARAM	4	1.00000E+000	Charge Stop At &1	Voltage > Limit	V
CHARGESTOPAT2	MULTIPARAM	0	0.00000E+000	Charge Stop At &2	None	N/A
AESBHCSELECTOR	TOGGLE	F	Save Both Half Cells
IRCOMP	TOGGLE	F	IR &Measure
EOC	QUANT	0	Open Circuit (V)
SEQUENCER	TOGGLE	TRUE	Run as Sequence
PSTATMODEL	IQUANT	53	Pstat Model
PSTATSECTION	LABEL	IFC5000-01520	Pstat Section
PSTATSERIALNO	LABEL	01520	Pstat Serial Number
CTRLMODE	IQUANT	0	Control Mode
ELECTROMETER	IQUANT	1	RE=0 or CS=1
IESTAB	IQUANT	0	I/E Stability
CASPEED	IQUANT	4	Control Amp Speed
CONVENTION	IQUANT	1	Current Convention
ICHRANGE	IQUANT	2	Ich Range
ICHRANGEMODE	TOGGLE	T	Ich Auto Range
ICHOFFSETENABLE	TOGGLE	F	Ich Offset Enable
ICHOFFSET	QUANT	0	Ich Offset (V)
ICHFILTER	IQUANT	1	Ich Filter
VCHRANGE	IQUANT	2	Vch Range
VCHRANGEMODE	TOGGLE	T	Vch Auto Range
VCHOFFSETENABLE	TOGGLE	F	Vch Offset Enable
VCHOFFSET	QUANT	0	Vch Offset (V)
VCHFILTER	IQUANT	1	Vch Filter
IERANGELOWERLIMIT	IQUANT	9	I/E Range Lower Limit
IERANGEMODE	TOGGLE	F	I/E AutoRange
IERANGE	IQUANT	10	I/E Range
ACHSELECT	IQUANT	1	Ach Select
ACHRANGE	IQUANT	2	Ach Range
ACHOFFSETENABLE	TOGGLE	F	Ach Offset Enable
ACHOFFSET	QUANT	0	Ach Offset (V)
ACHFILTER	IQUANT	1	Ach Filter
CABLEID	IQUANT	14	Cable ID
DCCALDATE	LABEL	20-10-2016	DC Calibration Date
ACCALDATE	LABEL	12/3/2015	AC Calibration Date
FRAMEWORKVERSION	QUANT	7.01	Framework Version
INSTRUMENTVERSION	LABEL	4.00	Instrument Version
CURVE	TABLE	60
	Pt	T	Vf	Im	Vu	Pwr	Sig	Ach	Temp	IERange	Over
	#	s	V	A	V	W	V	V	deg C	#	bits
	0	0.013333	6.25350E-001	5.99670E-003	0.00000E+000	3.75004E-003	3.59960E-001	-1.13042E+000	3.57790E+000	10	...........
	1	0.026667	6.34089E-001	5.99366E-003	0.00000E+000	3.80051E-003	3.59960E-001	-1.12657E+000	3.57790E+000	10	...........
	2	0.04	6.42135E-001	5.99254E-003	0.00000E+000	3.84802E-003	3.59960E-001	-1.12145E+000	3.57790E+000	10	...........
	3	0.053333	6.49758E-001	5.99575E-003	0.00000E+000	3.89579E-003	3.59960E-001	-1.13016E+000	3.57790E+000	10	...........
	4	0.066667	6.57108E-001	5.99549E-003	0.00000E+000	3.93969E-003	3.59960E-001	-1.12614E+000	3.57790E+000	10	...........
	5	0.08	6.64247E-001	5.99716E-003	0.00000E+000	3.98360E-003	3.59960E-001	-1.12089E+000	3.57790E+000	10	...........
	6	0.093333	6.71281E-001	5.99274E-003	0.00000E+000	4.02281E-003	3.59960E-001	-1.12994E+000	3.57790E+000	10	...........
	7	0.106667	6.78169E-001	5.99412E-003	0.00000E+000	4.06502E-003	3.59960E-001	-1.12629E+000	3.57790E+000	10	...........
	8	0.12	6.84970E-001	5.99247E-003	0.00000E+000	4.10466E-003	3.59960E-001	-1.12100E+000	3.57790E+000	10	...........
	9	0.133333	6.91716E-001	5.99561E-003	0.00000E+000	4.14726E-003	3.59960E-001	-1.12991E+000	3.57790E+000	10	...........
	10	0.146667	6.98391E-001	5.99387E-003	0.00000E+000	4.18607E-003	3.59960E-001	-1.12591E+000	3.57790E+000	10	...........
	11	0.16	7.05020E-001	5.99812E-003	0.00000E+000	4.22879E-003	3.59960E-001	-1.12084E+000	3.57790E+000	10	...........
	12	0.173333	7.11611E-001	5.99360E-003	0.00000E+000	4.26511E-003	3.59960E-001	-1.12985E+000	3.57790E+000	10	...........
	13	0.186667	7.18205E-001	5.99354E-003	0.00000E+000	4.30459E-003	3.59960E-001	-1.12622E+000	3.57790E+000	10	...........
	14	0.2	7.24759E-001	5.99609E-003	0.00000E+000	4.34571E-003	3.59960E-001	-1.12077E+000	3.57790E+000	10	...........
	15	0.213333	7.31277E-001	5.99690E-003	0.00000E+000	4.38540E-003	3.59960E-001	-1.12965E+000	3.57790E+000	10	...........
	16	0.226667	7.37721E-001	5.99100E-003	0.00000E+000	4.41968E-003	3.59960E-001	-1.12621E+000	3.57790E+000	10	...........
	17	0.24	7.44208E-001	5.99224E-003	0.00000E+000	4.45947E-003	3.59960E-001	-1.12119E+000	3.57790E+000	10	...........
	18	0.253333	7.50639E-001	5.99284E-003	0.00000E+000	4.49846E-003	3.59960E-001	-1.13004E+000	3.57790E+000	10	...........
	19	0.266667	7.57097E-001	5.99586E-003	0.00000E+000	4.53944E-003	3.59960E-001	-1.12642E+000	3.57790E+000	10	...........
	20	0.28	7.63509E-001	5.99460E-003	0.00000E+000	4.57693E-003	3.59960E-001	-1.12100E+000	3.57790E+000	10	...........
	21	0.293333	7.69891E-001	5.99534E-003	0.00000E+000	4.61576E-003	3.59960E-001	-1.13003E+000	3.57790E+000	10	...........
	22	0.306667	7.76279E-001	5.99410E-003	0.00000E+000	4.65310E-003	3.59960E-001	-1.12668E+000	3.57790E+000	10	...........
	23	0.32	7.82662E-001	5.99261E-003	0.00000E+000	4.69019E-003	3.59960E-001	-1.12127E+000	3.57790E+000	10	...........
	24	0.333333	7.88971E-001	5.99621E-003	0.00000E+000	4.73084E-003	3.59960E-001	-1.13005E+000	3.57790E+000	10	...........
	25	0.346667	7.95313E-001	5.99216E-003	0.00000E+000	4.76565E-003	3.59960E-001	-1.12641E+000	3.57790E+000	10	...........
	26	0.36	8.01601E-001	5.99158E-003	0.00000E+000	4.80285E-003	3.59960E-001	-1.12101E+000	3.57790E+000	10	...........
	27	0.373333	8.07885E-001	5.99283E-003	0.00000E+000	4.84152E-003	3.59960E-001	-1.12987E+000	3.57790E+000	10	...........
	28	0.386667	8.14192E-001	5.99187E-003	0.00000E+000	4.87853E-003	3.59960E-001	-1.12622E+000	3.57790E+000	10	...........
	29	0.4	8.20511E-001	5.99331E-003	0.00000E+000	4.91758E-003	3.59960E-001	-1.12088E+000	3.57790E+000	10	...........
	30	0.413333	8.26779E-001	5.99043E-003	0.00000E+000	4.95276E-003	3.59960E-001	-1.12969E+000	3.57790E+000	10	...........
	31	0.426667	8.33045E-001	5.99282E-003	0.00000E+000	4.99229E-003	3.59960E-001	-1.12613E+000	3.57790E+000	10	...........
	32	0.44	8.39292E-001	5.99257E-003	0.00000E+000	5.02952E-003	3.59960E-001	-1.12095E+000	3.57790E+000	10	...........
	33	0.453333	8.45562E-001	5.99453E-003	0.00000E+000	5.06875E-003	3.59960E-001	-1.12981E+000	3.57790E+000	10	...........
	34	0.466667	8.51805E-001	5.99276E-003	0.00000E+000	5.10466E-003	3.59960E-001	-1.12622E+000	3.57790E+000	10	...........
	35	0.48	8.58007E-001	5.99594E-003	0.00000E+000	5.14456E-003	3.59960E-001	-1.12081E+000	3.57790E+000	10	...........
	36	0.493333	8.64160E-001	5.99690E-003	0.00000E+000	5.18228E-003	3.59960E-001	-1.12965E+000	3.57790E+000	10	...........
	37	0.506667	8.70360E-001	5.99112E-003	0.00000E+000	5.21443E-003	3.59960E-001	-1.12615E+000	3.57790E+000	10	...........
	38	0.52	8.76517E-001	5.99104E-003	0.00000E+000	5.25125E-003	3.59960E-001	-1.12080E+000	3.57790E+000	10	...........
	39	0.533333	8.82662E-001	5.99697E-003	0.00000E+000	5.29330E-003	3.59960E-001	-1.12948E+000	3.57790E+000	10	...........
	40	0.546667	8.88793E-001	5.99788E-003	0.00000E+000	5.33087E-003	3.59960E-001	-1.12617E+000	3.57775E+000	10	...........
	41	0.56	8.94850E-001	5.99083E-003	0.00000E+000	5.36089E-003	3.59960E-001	-1.12090E+000	3.57750E+000	10	...........
	42	0.573333	9.00907E-001	5.99478E-003	0.00000E+000	5.40074E-003	3.59960E-001	-1.12976E+000	3.57750E+000	10	...........
	43	0.586667	9.06980E-001	5.99531E-003	0.00000E+000	5.43763E-003	3.59960E-001	-1.12648E+000	3.57750E+000	10	...........
	44	0.6	9.12993E-001	5.99910E-003	0.00000E+000	5.47714E-003	3.59960E-001	-1.12089E+000	3.57750E+000	10	...........
	45	0.613333	9.18990E-001	5.99508E-003	0.00000E+000	5.50942E-003	3.59960E-001	-1.12968E+000	3.57750E+000	10	...........
	46	0.626667	9.24969E-001	5.99530E-003	0.00000E+000	5.54547E-003	3.59960E-001	-1.12646E+000	3.57750E+000	10	...........
	47	0.64	9.30855E-001	5.99257E-003	0.00000E+000	5.57821E-003	3.59960E-001	-1.12107E+000	3.57750E+000	10	...........
	48	0.653333	9.36716E-001	5.99491E-003	0.00000E+000	5.61552E-003	3.59960E-001	-1.12976E+000	3.57750E+000	10	...........
	49	0.666667	9.42545E-001	5.98979E-003	0.00000E+000	5.64564E-003	3.59960E-001	-1.12634E+000	3.57750E+000	10	...........
	50	0.68	9.48380E-001	5.99318E-003	0.00000E+000	5.68381E-003	3.59960E-001	-1.12098E+000	3.57750E+000	10	...........
	51	0.693333	9.54152E-001	5.99545E-003	0.00000E+000	5.72057E-003	3.59960E-001	-1.12919E+000	3.57750E+000	10	...........
	52	0.706667	9.59914E-001	5.98828E-003	0.00000E+000	5.74824E-003	3.59960E-001	-1.12587E+000	3.57750E+000	10	...........
	53	0.72	9.65590E-001	5.99733E-003	0.00000E+000	5.79096E-003	3.59960E-001	-1.12066E+000	3.57750E+000	10	...........
	54	0.733333	9.71247E-001	5.99550E-003	0.00000E+000	5.82311E-003	3.59960E-001	-1.12918E+000	3.57750E+000	10	...........
	55	0.746667	9.76895E-001	5.99203E-003	0.00000E+000	5.85359E-003	3.59960E-001	-1.12583E+000	3.57750E+000	10	...........
	56	0.76	9.82444E-001	5.99396E-003	0.00000E+000	5.88873E-003	3.59960E-001	-1.12044E+000	3.57750E+000	10	...........
	57	0.773333	9.87943E-001	5.99317E-003	0.00000E+000	5.92091E-003	3.59960E-001	-1.12938E+000	3.57750E+000	10	...........
	58	0.786667	9.93422E-001	5.99469E-003	0.00000E+000	5.95525E-003	3.59960E-001	-1.12619E+000	3.57750E+000	10	...........
	59	0.798333	9.98571E-001	5.99075E-003	0.00000E+000	5.98219E-003	3.59960E-001	-1.11884E+000	3.57750E+000	10	...........
STARTTIMEOFFSET	QUANT	702.67	Start Time Offset (s)