Folder: Tesis/Data/CV_CRGO300517_1/PWRCCD_CRGO300517_1/CHARGE_DISCHARGE (part 95)

File: CHARGE_#189.DTA
EXPLAIN
TAG	PWR800_CHARGE
TITLE	LABEL	PWR Cyclic Charge Discharge (Cell) - Charge Step	Test &Identifier
DATE	LABEL	22-6-2017	Date
TIME	LABEL	15:43:20	Time
NOTES	NOTES	3	&Notes...
	supercap test cell
	0.6mg
	6M KOH
PSTAT	PSTAT	IFC5000-01520	Potentiostat
CAPACITY	QUANT	1.00000E-003	Capacity (A-hr)
CELLTYPE	SELECTOR	1	&Cell Type
WORKINGCONNECTION	SELECTOR	0	&Working Lead
MAXCHARGETIME	VARIABLEANDUNITS	1.00000E+002	s	1.00000E+002	second(s)	Max &Charge Time
CHARGECURRENT	QUANT	6.00000E-003	&Charge Current (A)
VOLTAGEFINISH	TWOPARAM	F	1.00000E-003	3.60000E+003	&Voltage Finish	 I (A) < 	Max Time(s)
SAMPLETIME	QUANT	1.00000E-002	Sa&mple Period (s)
CHARGESTOPAT1	MULTIPARAM	4	1.00000E+000	Charge Stop At &1	Voltage > Limit	V
CHARGESTOPAT2	MULTIPARAM	0	0.00000E+000	Charge Stop At &2	None	N/A
AESBHCSELECTOR	TOGGLE	F	Save Both Half Cells
IRCOMP	TOGGLE	F	IR &Measure
EOC	QUANT	0	Open Circuit (V)
SEQUENCER	TOGGLE	TRUE	Run as Sequence
PSTATMODEL	IQUANT	53	Pstat Model
PSTATSECTION	LABEL	IFC5000-01520	Pstat Section
PSTATSERIALNO	LABEL	01520	Pstat Serial Number
CTRLMODE	IQUANT	0	Control Mode
ELECTROMETER	IQUANT	1	RE=0 or CS=1
IESTAB	IQUANT	0	I/E Stability
CASPEED	IQUANT	4	Control Amp Speed
CONVENTION	IQUANT	1	Current Convention
ICHRANGE	IQUANT	2	Ich Range
ICHRANGEMODE	TOGGLE	T	Ich Auto Range
ICHOFFSETENABLE	TOGGLE	F	Ich Offset Enable
ICHOFFSET	QUANT	0	Ich Offset (V)
ICHFILTER	IQUANT	1	Ich Filter
VCHRANGE	IQUANT	2	Vch Range
VCHRANGEMODE	TOGGLE	T	Vch Auto Range
VCHOFFSETENABLE	TOGGLE	F	Vch Offset Enable
VCHOFFSET	QUANT	0	Vch Offset (V)
VCHFILTER	IQUANT	1	Vch Filter
IERANGELOWERLIMIT	IQUANT	9	I/E Range Lower Limit
IERANGEMODE	TOGGLE	F	I/E AutoRange
IERANGE	IQUANT	10	I/E Range
ACHSELECT	IQUANT	1	Ach Select
ACHRANGE	IQUANT	2	Ach Range
ACHOFFSETENABLE	TOGGLE	F	Ach Offset Enable
ACHOFFSET	QUANT	0	Ach Offset (V)
ACHFILTER	IQUANT	1	Ach Filter
CABLEID	IQUANT	14	Cable ID
DCCALDATE	LABEL	20-10-2016	DC Calibration Date
ACCALDATE	LABEL	12/3/2015	AC Calibration Date
FRAMEWORKVERSION	QUANT	7.01	Framework Version
INSTRUMENTVERSION	LABEL	4.00	Instrument Version
CURVE	TABLE	66
	Pt	T	Vf	Im	Vu	Pwr	Sig	Ach	Temp	IERange	Over
	#	s	V	A	V	W	V	V	deg C	#	bits
	0	0.013333	6.04529E-001	5.99541E-003	0.00000E+000	3.62440E-003	3.59960E-001	-1.09451E+000	3.57940E+000	10	...........
	1	0.026667	6.12976E-001	5.99637E-003	0.00000E+000	3.67563E-003	3.59960E-001	-1.08639E+000	3.57940E+000	10	...........
	2	0.04	6.20759E-001	5.99667E-003	0.00000E+000	3.72249E-003	3.59960E-001	-1.08365E+000	3.57940E+000	10	...........
	3	0.053333	6.28074E-001	5.99561E-003	0.00000E+000	3.76568E-003	3.59960E-001	-1.09409E+000	3.57940E+000	10	...........
	4	0.066667	6.35080E-001	5.99137E-003	0.00000E+000	3.80500E-003	3.59960E-001	-1.08593E+000	3.57940E+000	10	...........
	5	0.08	6.42002E-001	5.99465E-003	0.00000E+000	3.84857E-003	3.59960E-001	-1.08352E+000	3.57940E+000	10	...........
	6	0.093333	6.48753E-001	5.99217E-003	0.00000E+000	3.88744E-003	3.59960E-001	-1.09393E+000	3.57940E+000	10	...........
	7	0.106667	6.55403E-001	5.99123E-003	0.00000E+000	3.92667E-003	3.59960E-001	-1.08632E+000	3.57940E+000	10	...........
	8	0.12	6.61944E-001	5.99460E-003	0.00000E+000	3.96809E-003	3.59960E-001	-1.08328E+000	3.57940E+000	10	...........
	9	0.133333	6.68448E-001	5.99356E-003	0.00000E+000	4.00638E-003	3.59960E-001	-1.09368E+000	3.57940E+000	10	...........
	10	0.146667	6.74859E-001	5.99617E-003	0.00000E+000	4.04657E-003	3.59960E-001	-1.08624E+000	3.57940E+000	10	...........
	11	0.16	6.81199E-001	5.99597E-003	0.00000E+000	4.08445E-003	3.59960E-001	-1.08325E+000	3.57940E+000	10	...........
	12	0.173333	6.87496E-001	5.99671E-003	0.00000E+000	4.12271E-003	3.59960E-001	-1.09374E+000	3.57940E+000	10	...........
	13	0.186667	6.93798E-001	5.99356E-003	0.00000E+000	4.15832E-003	3.59960E-001	-1.08600E+000	3.57940E+000	10	...........
	14	0.2	7.00042E-001	5.99393E-003	0.00000E+000	4.19600E-003	3.59960E-001	-1.08326E+000	3.57940E+000	10	...........
	15	0.213333	7.06337E-001	5.99463E-003	0.00000E+000	4.23422E-003	3.59960E-001	-1.09331E+000	3.57940E+000	10	...........
	16	0.226667	7.12513E-001	5.99333E-003	0.00000E+000	4.27033E-003	3.59960E-001	-1.08636E+000	3.57940E+000	10	...........
	17	0.24	7.18750E-001	5.99915E-003	0.00000E+000	4.31189E-003	3.59960E-001	-1.08300E+000	3.57940E+000	10	...........
	18	0.253333	7.24929E-001	5.99514E-003	0.00000E+000	4.34605E-003	3.59960E-001	-1.09307E+000	3.57940E+000	10	...........
	19	0.266667	7.31091E-001	5.99778E-003	0.00000E+000	4.38492E-003	3.59960E-001	-1.08656E+000	3.57940E+000	10	...........
	20	0.28	7.37207E-001	5.99121E-003	0.00000E+000	4.41676E-003	3.59960E-001	-1.08294E+000	3.57940E+000	10	...........
	21	0.293333	7.43353E-001	5.99375E-003	0.00000E+000	4.45547E-003	3.59960E-001	-1.09303E+000	3.57940E+000	10	...........
	22	0.306667	7.49488E-001	5.99185E-003	0.00000E+000	4.49082E-003	3.59960E-001	-1.08651E+000	3.57940E+000	10	...........
	23	0.32	7.55641E-001	5.99771E-003	0.00000E+000	4.53212E-003	3.59960E-001	-1.08283E+000	3.57940E+000	10	...........
	24	0.333333	7.61753E-001	5.99638E-003	0.00000E+000	4.56776E-003	3.59960E-001	-1.09283E+000	3.57940E+000	10	...........
	25	0.346667	7.67857E-001	5.99935E-003	0.00000E+000	4.60664E-003	3.59960E-001	-1.08650E+000	3.57835E+000	10	...........
	26	0.36	7.73945E-001	5.99601E-003	0.00000E+000	4.64059E-003	3.59960E-001	-1.08254E+000	3.57730E+000	10	...........
	27	0.373333	7.80080E-001	5.99482E-003	0.00000E+000	4.67644E-003	3.59960E-001	-1.09237E+000	3.57730E+000	10	...........
	28	0.386667	7.86190E-001	5.99428E-003	0.00000E+000	4.71264E-003	3.59960E-001	-1.08631E+000	3.57730E+000	10	...........
	29	0.4	7.92272E-001	5.99328E-003	0.00000E+000	4.74831E-003	3.59960E-001	-1.08226E+000	3.57730E+000	10	...........
	30	0.413333	7.98414E-001	5.99613E-003	0.00000E+000	4.78740E-003	3.59960E-001	-1.09215E+000	3.57730E+000	10	...........
	31	0.426667	8.04479E-001	5.99125E-003	0.00000E+000	4.81983E-003	3.59960E-001	-1.08610E+000	3.57730E+000	10	...........
	32	0.44	8.10546E-001	5.99338E-003	0.00000E+000	4.85792E-003	3.59960E-001	-1.08225E+000	3.57730E+000	10	...........
	33	0.453333	8.16564E-001	5.99286E-003	0.00000E+000	4.89355E-003	3.59960E-001	-1.09179E+000	3.57730E+000	10	...........
	34	0.466667	8.22601E-001	5.99577E-003	0.00000E+000	4.93213E-003	3.59960E-001	-1.08632E+000	3.57730E+000	10	...........
	35	0.48	8.28607E-001	5.99308E-003	0.00000E+000	4.96591E-003	3.59960E-001	-1.08202E+000	3.57730E+000	10	...........
	36	0.493333	8.34644E-001	5.99137E-003	0.00000E+000	5.00066E-003	3.59960E-001	-1.09193E+000	3.57730E+000	10	...........
	37	0.506667	8.40650E-001	5.99430E-003	0.00000E+000	5.03911E-003	3.59960E-001	-1.08641E+000	3.57730E+000	10	...........
	38	0.52	8.46714E-001	5.99182E-003	0.00000E+000	5.07336E-003	3.59960E-001	-1.08192E+000	3.57730E+000	10	...........
	39	0.533333	8.52687E-001	5.99671E-003	0.00000E+000	5.11332E-003	3.59960E-001	-1.09162E+000	3.57730E+000	10	...........
	40	0.546667	8.58650E-001	5.99287E-003	0.00000E+000	5.14578E-003	3.59960E-001	-1.08639E+000	3.57730E+000	10	...........
	41	0.56	8.64640E-001	5.99655E-003	0.00000E+000	5.18485E-003	3.59960E-001	-1.08195E+000	3.57730E+000	10	...........
	42	0.573333	8.70625E-001	5.99528E-003	0.00000E+000	5.21964E-003	3.59960E-001	-1.09169E+000	3.57730E+000	10	...........
	43	0.586667	8.76573E-001	5.98975E-003	0.00000E+000	5.25046E-003	3.59960E-001	-1.08688E+000	3.57730E+000	10	...........
	44	0.6	8.82536E-001	5.99367E-003	0.00000E+000	5.28962E-003	3.59960E-001	-1.08238E+000	3.57730E+000	10	...........
	45	0.613333	8.88468E-001	5.99169E-003	0.00000E+000	5.32343E-003	3.59960E-001	-1.09170E+000	3.57730E+000	10	...........
	46	0.626667	8.94329E-001	5.99975E-003	0.00000E+000	5.36575E-003	3.59960E-001	-1.08710E+000	3.57730E+000	10	...........
	47	0.64	9.00205E-001	5.98879E-003	0.00000E+000	5.39113E-003	3.59960E-001	-1.08230E+000	3.57730E+000	10	...........
	48	0.653333	9.06077E-001	5.99537E-003	0.00000E+000	5.43226E-003	3.59960E-001	-1.09131E+000	3.57730E+000	10	...........
	49	0.666667	9.11905E-001	5.99437E-003	0.00000E+000	5.46629E-003	3.59960E-001	-1.08718E+000	3.57730E+000	10	...........
	50	0.68	9.17705E-001	5.99521E-003	0.00000E+000	5.50183E-003	3.59960E-001	-1.08194E+000	3.57730E+000	10	...........
	51	0.693333	9.23587E-001	5.99014E-003	0.00000E+000	5.53242E-003	3.59960E-001	-1.09100E+000	3.57730E+000	10	...........
	52	0.706667	9.29380E-001	5.99368E-003	0.00000E+000	5.57041E-003	3.59960E-001	-1.08713E+000	3.57730E+000	10	...........
	53	0.72	9.35169E-001	5.99303E-003	0.00000E+000	5.60449E-003	3.59960E-001	-1.08193E+000	3.57730E+000	10	...........
	54	0.733333	9.40877E-001	5.99289E-003	0.00000E+000	5.63858E-003	3.59960E-001	-1.09061E+000	3.57730E+000	10	...........
	55	0.746667	9.46543E-001	5.99126E-003	0.00000E+000	5.67098E-003	3.59960E-001	-1.08726E+000	3.57730E+000	10	...........
	56	0.76	9.52243E-001	5.98771E-003	0.00000E+000	5.70175E-003	3.59960E-001	-1.08210E+000	3.57730E+000	10	...........
	57	0.773333	9.57878E-001	5.99486E-003	0.00000E+000	5.74234E-003	3.59960E-001	-1.09075E+000	3.57730E+000	10	...........
	58	0.786667	9.63492E-001	5.99460E-003	0.00000E+000	5.77575E-003	3.59960E-001	-1.08739E+000	3.57730E+000	10	...........
	59	0.8	9.69026E-001	5.99211E-003	0.00000E+000	5.80651E-003	3.59960E-001	-1.08214E+000	3.57730E+000	10	...........
	60	0.813333	9.74627E-001	5.99496E-003	0.00000E+000	5.84285E-003	3.59960E-001	-1.09039E+000	3.57730E+000	10	...........
	61	0.826667	9.80129E-001	5.99600E-003	0.00000E+000	5.87686E-003	3.59960E-001	-1.08760E+000	3.57730E+000	10	...........
	62	0.84	9.85600E-001	5.99710E-003	0.00000E+000	5.91074E-003	3.59960E-001	-1.08218E+000	3.57730E+000	10	...........
	63	0.853333	9.91009E-001	5.99704E-003	0.00000E+000	5.94312E-003	3.59960E-001	-1.09023E+000	3.57730E+000	10	...........
	64	0.866667	9.96423E-001	5.99607E-003	0.00000E+000	5.97461E-003	3.59960E-001	-1.08778E+000	3.57730E+000	10	...........
	65	0.87	9.99744E-001	5.99538E-003	0.00000E+000	5.99384E-003	3.59960E-001	-1.09267E+000	3.57730E+000	10	...........
STARTTIMEOFFSET	QUANT	353.9668	Start Time Offset (s)

File: CHARGE_#190.DTA
EXPLAIN
TAG	PWR800_CHARGE
TITLE	LABEL	PWR Cyclic Charge Discharge (Cell) - Charge Step	Test &Identifier
DATE	LABEL	22-6-2017	Date
TIME	LABEL	15:43:23	Time
NOTES	NOTES	3	&Notes...
	supercap test cell
	0.6mg
	6M KOH
PSTAT	PSTAT	IFC5000-01520	Potentiostat
CAPACITY	QUANT	1.00000E-003	Capacity (A-hr)
CELLTYPE	SELECTOR	1	&Cell Type
WORKINGCONNECTION	SELECTOR	0	&Working Lead
MAXCHARGETIME	VARIABLEANDUNITS	1.00000E+002	s	1.00000E+002	second(s)	Max &Charge Time
CHARGECURRENT	QUANT	6.00000E-003	&Charge Current (A)
VOLTAGEFINISH	TWOPARAM	F	1.00000E-003	3.60000E+003	&Voltage Finish	 I (A) < 	Max Time(s)
SAMPLETIME	QUANT	1.00000E-002	Sa&mple Period (s)
CHARGESTOPAT1	MULTIPARAM	4	1.00000E+000	Charge Stop At &1	Voltage > Limit	V
CHARGESTOPAT2	MULTIPARAM	0	0.00000E+000	Charge Stop At &2	None	N/A
AESBHCSELECTOR	TOGGLE	F	Save Both Half Cells
IRCOMP	TOGGLE	F	IR &Measure
EOC	QUANT	0	Open Circuit (V)
SEQUENCER	TOGGLE	TRUE	Run as Sequence
PSTATMODEL	IQUANT	53	Pstat Model
PSTATSECTION	LABEL	IFC5000-01520	Pstat Section
PSTATSERIALNO	LABEL	01520	Pstat Serial Number
CTRLMODE	IQUANT	0	Control Mode
ELECTROMETER	IQUANT	1	RE=0 or CS=1
IESTAB	IQUANT	0	I/E Stability
CASPEED	IQUANT	4	Control Amp Speed
CONVENTION	IQUANT	1	Current Convention
ICHRANGE	IQUANT	2	Ich Range
ICHRANGEMODE	TOGGLE	T	Ich Auto Range
ICHOFFSETENABLE	TOGGLE	F	Ich Offset Enable
ICHOFFSET	QUANT	0	Ich Offset (V)
ICHFILTER	IQUANT	1	Ich Filter
VCHRANGE	IQUANT	2	Vch Range
VCHRANGEMODE	TOGGLE	T	Vch Auto Range
VCHOFFSETENABLE	TOGGLE	F	Vch Offset Enable
VCHOFFSET	QUANT	0	Vch Offset (V)
VCHFILTER	IQUANT	1	Vch Filter
IERANGELOWERLIMIT	IQUANT	9	I/E Range Lower Limit
IERANGEMODE	TOGGLE	F	I/E AutoRange
IERANGE	IQUANT	10	I/E Range
ACHSELECT	IQUANT	1	Ach Select
ACHRANGE	IQUANT	2	Ach Range
ACHOFFSETENABLE	TOGGLE	F	Ach Offset Enable
ACHOFFSET	QUANT	0	Ach Offset (V)
ACHFILTER	IQUANT	1	Ach Filter
CABLEID	IQUANT	14	Cable ID
DCCALDATE	LABEL	20-10-2016	DC Calibration Date
ACCALDATE	LABEL	12/3/2015	AC Calibration Date
FRAMEWORKVERSION	QUANT	7.01	Framework Version
INSTRUMENTVERSION	LABEL	4.00	Instrument Version
CURVE	TABLE	66
	Pt	T	Vf	Im	Vu	Pwr	Sig	Ach	Temp	IERange	Over
	#	s	V	A	V	W	V	V	deg C	#	bits
	0	0.013333	6.04712E-001	5.99371E-003	0.00000E+000	3.62446E-003	3.59960E-001	-1.09097E+000	3.57740E+000	10	...........
	1	0.026667	6.13151E-001	5.99370E-003	0.00000E+000	3.67504E-003	3.59960E-001	-1.09060E+000	3.57740E+000	10	...........
	2	0.04	6.20885E-001	6.00006E-003	0.00000E+000	3.72535E-003	3.59960E-001	-1.08399E+000	3.57740E+000	10	...........
	3	0.053333	6.28199E-001	5.99602E-003	0.00000E+000	3.76670E-003	3.59960E-001	-1.09073E+000	3.57740E+000	10	...........
	4	0.066667	6.35237E-001	5.99449E-003	0.00000E+000	3.80792E-003	3.59960E-001	-1.09082E+000	3.57740E+000	10	...........
	5	0.08	6.42178E-001	5.99893E-003	0.00000E+000	3.85238E-003	3.59960E-001	-1.08357E+000	3.57740E+000	10	...........
	6	0.093333	6.48890E-001	5.99578E-003	0.00000E+000	3.89061E-003	3.59960E-001	-1.08975E+000	3.57740E+000	10	...........
	7	0.106667	6.55544E-001	5.99511E-003	0.00000E+000	3.93006E-003	3.59960E-001	-1.09055E+000	3.57740E+000	10	...........
	8	0.12	6.62065E-001	5.99320E-003	0.00000E+000	3.96789E-003	3.59960E-001	-1.08323E+000	3.57740E+000	10	...........
	9	0.133333	6.68601E-001	5.98753E-003	0.00000E+000	4.00327E-003	3.59960E-001	-1.08949E+000	3.57740E+000	10	...........
	10	0.146667	6.75001E-001	5.98985E-003	0.00000E+000	4.04316E-003	3.59960E-001	-1.09035E+000	3.57740E+000	10	...........
	11	0.16	6.81344E-001	5.99565E-003	0.00000E+000	4.08510E-003	3.59960E-001	-1.08310E+000	3.57740E+000	10	...........
	12	0.173333	6.87611E-001	5.99086E-003	0.00000E+000	4.11938E-003	3.59960E-001	-1.08942E+000	3.57740E+000	10	...........
	13	0.186667	6.93921E-001	5.99192E-003	0.00000E+000	4.15792E-003	3.59960E-001	-1.09054E+000	3.57740E+000	10	...........
	14	0.2	7.00198E-001	6.00060E-003	0.00000E+000	4.20161E-003	3.59960E-001	-1.08289E+000	3.57740E+000	10	...........
	15	0.213333	7.06397E-001	5.99127E-003	0.00000E+000	4.23221E-003	3.59960E-001	-1.08918E+000	3.57740E+000	10	...........
	16	0.226667	7.12585E-001	5.99070E-003	0.00000E+000	4.26889E-003	3.59960E-001	-1.09060E+000	3.57740E+000	10	...........
	17	0.24	7.18837E-001	5.99375E-003	0.00000E+000	4.30853E-003	3.59960E-001	-1.08287E+000	3.57740E+000	10	...........
	18	0.253333	7.25049E-001	5.99399E-003	0.00000E+000	4.34593E-003	3.59960E-001	-1.08896E+000	3.57740E+000	10	...........
	19	0.266667	7.31190E-001	5.99284E-003	0.00000E+000	4.38190E-003	3.59960E-001	-1.09060E+000	3.57740E+000	10	...........
	20	0.28	7.37348E-001	5.99181E-003	0.00000E+000	4.41805E-003	3.59960E-001	-1.08284E+000	3.57740E+000	10	...........
	21	0.293333	7.43507E-001	5.99183E-003	0.00000E+000	4.45497E-003	3.59960E-001	-1.08869E+000	3.57740E+000	10	...........
	22	0.306667	7.49650E-001	5.99285E-003	0.00000E+000	4.49254E-003	3.59960E-001	-1.09109E+000	3.57740E+000	10	...........
	23	0.32	7.55807E-001	5.99647E-003	0.00000E+000	4.53218E-003	3.59960E-001	-1.08325E+000	3.57740E+000	10	...........
	24	0.333333	7.61922E-001	5.99434E-003	0.00000E+000	4.56722E-003	3.59960E-001	-1.08858E+000	3.57740E+000	10	...........
	25	0.346667	7.68009E-001	5.99026E-003	0.00000E+000	4.60057E-003	3.59960E-001	-1.09097E+000	3.57740E+000	10	...........
	26	0.36	7.74133E-001	5.99329E-003	0.00000E+000	4.63960E-003	3.59960E-001	-1.08310E+000	3.57740E+000	10	...........
	27	0.373333	7.80204E-001	5.99136E-003	0.00000E+000	4.67448E-003	3.59960E-001	-1.08871E+000	3.57740E+000	10	...........
	28	0.386667	7.86325E-001	5.99725E-003	0.00000E+000	4.71579E-003	3.59960E-001	-1.09130E+000	3.57740E+000	10	...........
	29	0.4	7.92449E-001	5.99217E-003	0.00000E+000	4.74849E-003	3.59960E-001	-1.08300E+000	3.57740E+000	10	...........
	30	0.413333	7.98573E-001	5.99340E-003	0.00000E+000	4.78616E-003	3.59960E-001	-1.08783E+000	3.57740E+000	10	...........
	31	0.426667	8.04607E-001	5.99334E-003	0.00000E+000	4.82228E-003	3.59960E-001	-1.09125E+000	3.57740E+000	10	...........
	32	0.44	8.10663E-001	5.99662E-003	0.00000E+000	4.86123E-003	3.59960E-001	-1.08292E+000	3.57740E+000	10	...........
	33	0.453333	8.16704E-001	5.99830E-003	0.00000E+000	4.89883E-003	3.59960E-001	-1.08788E+000	3.57740E+000	10	...........
	34	0.466667	8.22756E-001	5.99358E-003	0.00000E+000	4.93126E-003	3.59960E-001	-1.09108E+000	3.57740E+000	10	...........
	35	0.48	8.28799E-001	5.99752E-003	0.00000E+000	4.97074E-003	3.59960E-001	-1.08287E+000	3.57740E+000	10	...........
	36	0.493333	8.34799E-001	5.99121E-003	0.00000E+000	5.00146E-003	3.59960E-001	-1.08770E+000	3.57740E+000	10	...........
	37	0.506667	8.40794E-001	5.99319E-003	0.00000E+000	5.03903E-003	3.59960E-001	-1.09145E+000	3.57740E+000	10	...........
	38	0.52	8.46801E-001	5.98986E-003	0.00000E+000	5.07222E-003	3.59960E-001	-1.08305E+000	3.57740E+000	10	...........
	39	0.533333	8.52783E-001	5.99401E-003	0.00000E+000	5.11159E-003	3.59960E-001	-1.08718E+000	3.57740E+000	10	...........
	40	0.546667	8.58816E-001	5.99403E-003	0.00000E+000	5.14777E-003	3.59960E-001	-1.09139E+000	3.57740E+000	10	...........
	41	0.56	8.64809E-001	5.99611E-003	0.00000E+000	5.18549E-003	3.59960E-001	-1.08300E+000	3.57740E+000	10	...........
	42	0.573333	8.70794E-001	5.99525E-003	0.00000E+000	5.22063E-003	3.59960E-001	-1.08719E+000	3.57740E+000	10	...........
	43	0.586667	8.76688E-001	5.98982E-003	0.00000E+000	5.25120E-003	3.59960E-001	-1.09161E+000	3.57740E+000	10	...........
	44	0.6	8.82644E-001	5.99312E-003	0.00000E+000	5.28980E-003	3.59960E-001	-1.08259E+000	3.57740E+000	10	...........
	45	0.613333	8.88533E-001	5.99475E-003	0.00000E+000	5.32653E-003	3.59960E-001	-1.08668E+000	3.57740E+000	10	...........
	46	0.626667	8.94465E-001	5.99022E-003	0.00000E+000	5.35805E-003	3.59960E-001	-1.09187E+000	3.57740E+000	10	...........
	47	0.64	9.00338E-001	5.99758E-003	0.00000E+000	5.39985E-003	3.59960E-001	-1.08328E+000	3.57740E+000	10	...........
	48	0.653333	9.06238E-001	5.99543E-003	0.00000E+000	5.43329E-003	3.59960E-001	-1.08693E+000	3.57740E+000	10	...........
	49	0.666667	9.12090E-001	5.99670E-003	0.00000E+000	5.46953E-003	3.59960E-001	-1.09179E+000	3.57740E+000	10	...........
	50	0.68	9.17900E-001	5.98981E-003	0.00000E+000	5.49804E-003	3.59960E-001	-1.08287E+000	3.57740E+000	10	...........
	51	0.693333	9.23748E-001	5.99365E-003	0.00000E+000	5.53662E-003	3.59960E-001	-1.08654E+000	3.57740E+000	10	...........
	52	0.706667	9.29492E-001	5.99211E-003	0.00000E+000	5.56962E-003	3.59960E-001	-1.09195E+000	3.57740E+000	10	...........
	53	0.72	9.35233E-001	5.99539E-003	0.00000E+000	5.60708E-003	3.59960E-001	-1.08258E+000	3.57740E+000	10	...........
	54	0.733333	9.40947E-001	5.99125E-003	0.00000E+000	5.63745E-003	3.59960E-001	-1.08590E+000	3.57740E+000	10	...........
	55	0.746667	9.46661E-001	5.99089E-003	0.00000E+000	5.67134E-003	3.59960E-001	-1.09169E+000	3.57740E+000	10	...........
	56	0.76	9.52351E-001	5.99324E-003	0.00000E+000	5.70767E-003	3.59960E-001	-1.08240E+000	3.57740E+000	10	...........
	57	0.773333	9.57986E-001	5.99200E-003	0.00000E+000	5.74025E-003	3.59960E-001	-1.08600E+000	3.57740E+000	10	...........
	58	0.786667	9.63570E-001	5.99221E-003	0.00000E+000	5.77391E-003	3.59960E-001	-1.09182E+000	3.57740E+000	10	...........
	59	0.8	9.69110E-001	5.99752E-003	0.00000E+000	5.81225E-003	3.59960E-001	-1.08234E+000	3.57740E+000	10	...........
	60	0.813333	9.74745E-001	5.99305E-003	0.00000E+000	5.84169E-003	3.59960E-001	-1.08552E+000	3.57740E+000	10	...........
	61	0.826667	9.80213E-001	5.99548E-003	0.00000E+000	5.87685E-003	3.59960E-001	-1.09201E+000	3.57761E+000	10	...........
	62	0.84	9.85662E-001	5.99626E-003	0.00000E+000	5.91029E-003	3.59960E-001	-1.08238E+000	3.57820E+000	10	...........
	63	0.853333	9.91094E-001	5.99492E-003	0.00000E+000	5.94153E-003	3.59960E-001	-1.08533E+000	3.57820E+000	10	...........
	64	0.866667	9.96469E-001	5.99322E-003	0.00000E+000	5.97206E-003	3.59960E-001	-1.09191E+000	3.57820E+000	10	...........
	65	0.87	9.99859E-001	5.99830E-003	0.00000E+000	5.99745E-003	3.59960E-001	-1.08094E+000	3.57820E+000	10	...........
STARTTIMEOFFSET	QUANT	355.6968	Start Time Offset (s)