Folder: Tesis/Data/CV_CRGO300517_1/PWRCCD_CRGO300517_1/CHARGE_DISCHARGE (part 163)

File: CHARGE_#331.DTA
EXPLAIN
TAG	PWR800_CHARGE
TITLE	LABEL	PWR Cyclic Charge Discharge (Cell) - Charge Step	Test &Identifier
DATE	LABEL	22-6-2017	Date
TIME	LABEL	15:49:11	Time
NOTES	NOTES	3	&Notes...
	supercap test cell
	0.6mg
	6M KOH
PSTAT	PSTAT	IFC5000-01520	Potentiostat
CAPACITY	QUANT	1.00000E-003	Capacity (A-hr)
CELLTYPE	SELECTOR	1	&Cell Type
WORKINGCONNECTION	SELECTOR	0	&Working Lead
MAXCHARGETIME	VARIABLEANDUNITS	1.00000E+002	s	1.00000E+002	second(s)	Max &Charge Time
CHARGECURRENT	QUANT	6.00000E-003	&Charge Current (A)
VOLTAGEFINISH	TWOPARAM	F	1.00000E-003	3.60000E+003	&Voltage Finish	 I (A) < 	Max Time(s)
SAMPLETIME	QUANT	1.00000E-002	Sa&mple Period (s)
CHARGESTOPAT1	MULTIPARAM	4	1.00000E+000	Charge Stop At &1	Voltage > Limit	V
CHARGESTOPAT2	MULTIPARAM	0	0.00000E+000	Charge Stop At &2	None	N/A
AESBHCSELECTOR	TOGGLE	F	Save Both Half Cells
IRCOMP	TOGGLE	F	IR &Measure
EOC	QUANT	0	Open Circuit (V)
SEQUENCER	TOGGLE	TRUE	Run as Sequence
PSTATMODEL	IQUANT	53	Pstat Model
PSTATSECTION	LABEL	IFC5000-01520	Pstat Section
PSTATSERIALNO	LABEL	01520	Pstat Serial Number
CTRLMODE	IQUANT	0	Control Mode
ELECTROMETER	IQUANT	1	RE=0 or CS=1
IESTAB	IQUANT	0	I/E Stability
CASPEED	IQUANT	4	Control Amp Speed
CONVENTION	IQUANT	1	Current Convention
ICHRANGE	IQUANT	2	Ich Range
ICHRANGEMODE	TOGGLE	T	Ich Auto Range
ICHOFFSETENABLE	TOGGLE	F	Ich Offset Enable
ICHOFFSET	QUANT	0	Ich Offset (V)
ICHFILTER	IQUANT	1	Ich Filter
VCHRANGE	IQUANT	2	Vch Range
VCHRANGEMODE	TOGGLE	T	Vch Auto Range
VCHOFFSETENABLE	TOGGLE	F	Vch Offset Enable
VCHOFFSET	QUANT	0	Vch Offset (V)
VCHFILTER	IQUANT	1	Vch Filter
IERANGELOWERLIMIT	IQUANT	9	I/E Range Lower Limit
IERANGEMODE	TOGGLE	F	I/E AutoRange
IERANGE	IQUANT	10	I/E Range
ACHSELECT	IQUANT	1	Ach Select
ACHRANGE	IQUANT	2	Ach Range
ACHOFFSETENABLE	TOGGLE	F	Ach Offset Enable
ACHOFFSET	QUANT	0	Ach Offset (V)
ACHFILTER	IQUANT	1	Ach Filter
CABLEID	IQUANT	14	Cable ID
DCCALDATE	LABEL	20-10-2016	DC Calibration Date
ACCALDATE	LABEL	12/3/2015	AC Calibration Date
FRAMEWORKVERSION	QUANT	7.01	Framework Version
INSTRUMENTVERSION	LABEL	4.00	Instrument Version
CURVE	TABLE	62
	Pt	T	Vf	Im	Vu	Pwr	Sig	Ach	Temp	IERange	Over
	#	s	V	A	V	W	V	V	deg C	#	bits
	0	0.013333	6.19491E-001	5.99410E-003	0.00000E+000	3.71329E-003	3.59960E-001	-1.11985E+000	3.57800E+000	10	...........
	1	0.026667	6.28115E-001	5.99626E-003	0.00000E+000	3.76634E-003	3.59960E-001	-1.11259E+000	3.57800E+000	10	...........
	2	0.04	6.36076E-001	5.99612E-003	0.00000E+000	3.81398E-003	3.59960E-001	-1.11940E+000	3.57800E+000	10	...........
	3	0.053333	6.43631E-001	5.99178E-003	0.00000E+000	3.85649E-003	3.59960E-001	-1.11933E+000	3.57800E+000	10	...........
	4	0.066667	6.50904E-001	5.99455E-003	0.00000E+000	3.90188E-003	3.59960E-001	-1.11217E+000	3.57800E+000	10	...........
	5	0.08	6.57970E-001	5.99422E-003	0.00000E+000	3.94402E-003	3.59960E-001	-1.11916E+000	3.57800E+000	10	...........
	6	0.093333	6.64891E-001	5.99526E-003	0.00000E+000	3.98620E-003	3.59960E-001	-1.11893E+000	3.57800E+000	10	...........
	7	0.106667	6.71723E-001	5.99167E-003	0.00000E+000	4.02474E-003	3.59960E-001	-1.11189E+000	3.57800E+000	10	...........
	8	0.12	6.78463E-001	5.99542E-003	0.00000E+000	4.06767E-003	3.59960E-001	-1.11871E+000	3.57800E+000	10	...........
	9	0.133333	6.85131E-001	5.99176E-003	0.00000E+000	4.10514E-003	3.59960E-001	-1.11889E+000	3.57800E+000	10	...........
	10	0.146667	6.91754E-001	5.99457E-003	0.00000E+000	4.14677E-003	3.59960E-001	-1.11159E+000	3.57800E+000	10	...........
	11	0.16	6.98336E-001	5.99227E-003	0.00000E+000	4.18462E-003	3.59960E-001	-1.11819E+000	3.57800E+000	10	...........
	12	0.173333	7.04875E-001	5.99363E-003	0.00000E+000	4.22476E-003	3.59960E-001	-1.11833E+000	3.57800E+000	10	...........
	13	0.186667	7.11311E-001	5.99568E-003	0.00000E+000	4.26479E-003	3.59960E-001	-1.11103E+000	3.57800E+000	10	...........
	14	0.2	7.17838E-001	5.99476E-003	0.00000E+000	4.30327E-003	3.59960E-001	-1.11756E+000	3.57800E+000	10	...........
	15	0.213333	7.24301E-001	5.99371E-003	0.00000E+000	4.34125E-003	3.59960E-001	-1.11787E+000	3.57800E+000	10	...........
	16	0.226667	7.30659E-001	5.99129E-003	0.00000E+000	4.37759E-003	3.59960E-001	-1.11024E+000	3.57800E+000	10	...........
	17	0.24	7.37056E-001	5.99153E-003	0.00000E+000	4.41609E-003	3.59960E-001	-1.11647E+000	3.57800E+000	10	...........
	18	0.253333	7.43482E-001	5.99564E-003	0.00000E+000	4.45765E-003	3.59960E-001	-1.11691E+000	3.57800E+000	10	...........
	19	0.266667	7.49843E-001	5.99587E-003	0.00000E+000	4.49596E-003	3.59960E-001	-1.10944E+000	3.57800E+000	10	...........
	20	0.28	7.56180E-001	5.99216E-003	0.00000E+000	4.53116E-003	3.59960E-001	-1.11595E+000	3.57800E+000	10	...........
	21	0.293333	7.62500E-001	5.99427E-003	0.00000E+000	4.57063E-003	3.59960E-001	-1.11644E+000	3.57800E+000	10	...........
	22	0.306667	7.68841E-001	5.99802E-003	0.00000E+000	4.61152E-003	3.59960E-001	-1.10887E+000	3.57800E+000	10	...........
	23	0.32	7.75155E-001	5.99469E-003	0.00000E+000	4.64681E-003	3.59960E-001	-1.11517E+000	3.57800E+000	10	...........
	24	0.333333	7.81454E-001	5.99396E-003	0.00000E+000	4.68401E-003	3.59960E-001	-1.11608E+000	3.57800E+000	10	...........
	25	0.346667	7.87749E-001	5.99616E-003	0.00000E+000	4.72347E-003	3.59960E-001	-1.10868E+000	3.57800E+000	10	...........
	26	0.36	7.94060E-001	5.99440E-003	0.00000E+000	4.75991E-003	3.59960E-001	-1.11513E+000	3.57800E+000	10	...........
	27	0.373333	8.00329E-001	5.98888E-003	0.00000E+000	4.79307E-003	3.59960E-001	-1.11602E+000	3.57800E+000	10	...........
	28	0.386667	8.06532E-001	5.99593E-003	0.00000E+000	4.83591E-003	3.59960E-001	-1.10841E+000	3.57800E+000	10	...........
	29	0.4	8.12765E-001	5.99292E-003	0.00000E+000	4.87083E-003	3.59960E-001	-1.11474E+000	3.57800E+000	10	...........
	30	0.413333	8.19043E-001	5.99322E-003	0.00000E+000	4.90871E-003	3.59960E-001	-1.11577E+000	3.57800E+000	10	...........
	31	0.426667	8.25284E-001	5.99290E-003	0.00000E+000	4.94585E-003	3.59960E-001	-1.10816E+000	3.57800E+000	10	...........
	32	0.44	8.31473E-001	5.99424E-003	0.00000E+000	4.98405E-003	3.59960E-001	-1.11438E+000	3.57800E+000	10	...........
	33	0.453333	8.37621E-001	5.99552E-003	0.00000E+000	5.02198E-003	3.59960E-001	-1.11573E+000	3.57800E+000	10	...........
	34	0.466667	8.43805E-001	5.99467E-003	0.00000E+000	5.05833E-003	3.59960E-001	-1.10836E+000	3.57800E+000	10	...........
	35	0.48	8.49992E-001	5.99326E-003	0.00000E+000	5.09422E-003	3.59960E-001	-1.11465E+000	3.57800E+000	10	...........
	36	0.493333	8.56173E-001	5.99843E-003	0.00000E+000	5.13570E-003	3.59960E-001	-1.11609E+000	3.57800E+000	10	...........
	37	0.506667	8.62314E-001	5.99434E-003	0.00000E+000	5.16901E-003	3.59960E-001	-1.10852E+000	3.57800E+000	10	...........
	38	0.52	8.68460E-001	5.99466E-003	0.00000E+000	5.20612E-003	3.59960E-001	-1.11437E+000	3.57800E+000	10	...........
	39	0.533333	8.74548E-001	5.99341E-003	0.00000E+000	5.24152E-003	3.59960E-001	-1.11631E+000	3.57800E+000	10	...........
	40	0.546667	8.80660E-001	5.99525E-003	0.00000E+000	5.27978E-003	3.59960E-001	-1.10869E+000	3.57800E+000	10	...........
	41	0.56	8.86733E-001	5.99197E-003	0.00000E+000	5.31328E-003	3.59960E-001	-1.11441E+000	3.57800E+000	10	...........
	42	0.573333	8.92736E-001	5.99692E-003	0.00000E+000	5.35366E-003	3.59960E-001	-1.11635E+000	3.57800E+000	10	...........
	43	0.586667	8.98808E-001	5.99403E-003	0.00000E+000	5.38748E-003	3.59960E-001	-1.10893E+000	3.57800E+000	10	...........
	44	0.6	9.04821E-001	5.99169E-003	0.00000E+000	5.42141E-003	3.59960E-001	-1.11490E+000	3.57800E+000	10	...........
	45	0.613333	9.10834E-001	5.99589E-003	0.00000E+000	5.46126E-003	3.59960E-001	-1.11711E+000	3.57889E+000	10	...........
	46	0.626667	9.16762E-001	5.99545E-003	0.00000E+000	5.49640E-003	3.59960E-001	-1.10915E+000	3.58020E+000	10	...........
	47	0.64	9.22753E-001	5.98966E-003	0.00000E+000	5.52698E-003	3.59960E-001	-1.11483E+000	3.58020E+000	10	...........
	48	0.653333	9.28621E-001	5.99916E-003	0.00000E+000	5.57095E-003	3.59960E-001	-1.11719E+000	3.58020E+000	10	...........
	49	0.666667	9.34487E-001	5.99246E-003	0.00000E+000	5.59987E-003	3.59960E-001	-1.10936E+000	3.58020E+000	10	...........
	50	0.68	9.40313E-001	5.99428E-003	0.00000E+000	5.63650E-003	3.59960E-001	-1.11487E+000	3.58020E+000	10	...........
	51	0.693333	9.46113E-001	5.99457E-003	0.00000E+000	5.67154E-003	3.59960E-001	-1.11724E+000	3.58020E+000	10	...........
	52	0.706667	9.51882E-001	5.99599E-003	0.00000E+000	5.70748E-003	3.59960E-001	-1.10910E+000	3.58020E+000	10	...........
	53	0.72	9.57590E-001	5.99045E-003	0.00000E+000	5.73640E-003	3.59960E-001	-1.11450E+000	3.58020E+000	10	...........
	54	0.733333	9.63293E-001	5.99437E-003	0.00000E+000	5.77433E-003	3.59960E-001	-1.11714E+000	3.58020E+000	10	...........
	55	0.746667	9.68890E-001	5.99381E-003	0.00000E+000	5.80734E-003	3.59960E-001	-1.10907E+000	3.58020E+000	10	...........
	56	0.76	9.74540E-001	5.99573E-003	0.00000E+000	5.84308E-003	3.59960E-001	-1.11430E+000	3.58020E+000	10	...........
	57	0.773333	9.80090E-001	5.99555E-003	0.00000E+000	5.87619E-003	3.59960E-001	-1.11710E+000	3.58020E+000	10	...........
	58	0.786667	9.85655E-001	5.99273E-003	0.00000E+000	5.90676E-003	3.59960E-001	-1.10928E+000	3.58020E+000	10	...........
	59	0.8	9.91156E-001	5.99601E-003	0.00000E+000	5.94298E-003	3.59960E-001	-1.11454E+000	3.58020E+000	10	...........
	60	0.813333	9.96595E-001	5.99105E-003	0.00000E+000	5.97065E-003	3.59960E-001	-1.11748E+000	3.58020E+000	10	...........
	61	0.816667	9.99929E-001	5.98908E-003	0.00000E+000	5.98865E-003	3.59960E-001	-1.11456E+000	3.58020E+000	10	...........
STARTTIMEOFFSET	QUANT	591.8648	Start Time Offset (s)

File: CHARGE_#332.DTA
EXPLAIN
TAG	PWR800_CHARGE
TITLE	LABEL	PWR Cyclic Charge Discharge (Cell) - Charge Step	Test &Identifier
DATE	LABEL	22-6-2017	Date
TIME	LABEL	15:49:14	Time
NOTES	NOTES	3	&Notes...
	supercap test cell
	0.6mg
	6M KOH
PSTAT	PSTAT	IFC5000-01520	Potentiostat
CAPACITY	QUANT	1.00000E-003	Capacity (A-hr)
CELLTYPE	SELECTOR	1	&Cell Type
WORKINGCONNECTION	SELECTOR	0	&Working Lead
MAXCHARGETIME	VARIABLEANDUNITS	1.00000E+002	s	1.00000E+002	second(s)	Max &Charge Time
CHARGECURRENT	QUANT	6.00000E-003	&Charge Current (A)
VOLTAGEFINISH	TWOPARAM	F	1.00000E-003	3.60000E+003	&Voltage Finish	 I (A) < 	Max Time(s)
SAMPLETIME	QUANT	1.00000E-002	Sa&mple Period (s)
CHARGESTOPAT1	MULTIPARAM	4	1.00000E+000	Charge Stop At &1	Voltage > Limit	V
CHARGESTOPAT2	MULTIPARAM	0	0.00000E+000	Charge Stop At &2	None	N/A
AESBHCSELECTOR	TOGGLE	F	Save Both Half Cells
IRCOMP	TOGGLE	F	IR &Measure
EOC	QUANT	0	Open Circuit (V)
SEQUENCER	TOGGLE	TRUE	Run as Sequence
PSTATMODEL	IQUANT	53	Pstat Model
PSTATSECTION	LABEL	IFC5000-01520	Pstat Section
PSTATSERIALNO	LABEL	01520	Pstat Serial Number
CTRLMODE	IQUANT	0	Control Mode
ELECTROMETER	IQUANT	1	RE=0 or CS=1
IESTAB	IQUANT	0	I/E Stability
CASPEED	IQUANT	4	Control Amp Speed
CONVENTION	IQUANT	1	Current Convention
ICHRANGE	IQUANT	2	Ich Range
ICHRANGEMODE	TOGGLE	T	Ich Auto Range
ICHOFFSETENABLE	TOGGLE	F	Ich Offset Enable
ICHOFFSET	QUANT	0	Ich Offset (V)
ICHFILTER	IQUANT	1	Ich Filter
VCHRANGE	IQUANT	2	Vch Range
VCHRANGEMODE	TOGGLE	T	Vch Auto Range
VCHOFFSETENABLE	TOGGLE	F	Vch Offset Enable
VCHOFFSET	QUANT	0	Vch Offset (V)
VCHFILTER	IQUANT	1	Vch Filter
IERANGELOWERLIMIT	IQUANT	9	I/E Range Lower Limit
IERANGEMODE	TOGGLE	F	I/E AutoRange
IERANGE	IQUANT	10	I/E Range
ACHSELECT	IQUANT	1	Ach Select
ACHRANGE	IQUANT	2	Ach Range
ACHOFFSETENABLE	TOGGLE	F	Ach Offset Enable
ACHOFFSET	QUANT	0	Ach Offset (V)
ACHFILTER	IQUANT	1	Ach Filter
CABLEID	IQUANT	14	Cable ID
DCCALDATE	LABEL	20-10-2016	DC Calibration Date
ACCALDATE	LABEL	12/3/2015	AC Calibration Date
FRAMEWORKVERSION	QUANT	7.01	Framework Version
INSTRUMENTVERSION	LABEL	4.00	Instrument Version
CURVE	TABLE	62
	Pt	T	Vf	Im	Vu	Pwr	Sig	Ach	Temp	IERange	Over
	#	s	V	A	V	W	V	V	deg C	#	bits
	0	0.013333	6.19511E-001	5.99165E-003	0.00000E+000	3.71189E-003	3.59960E-001	-1.11035E+000	3.57660E+000	10	...........
	1	0.026667	6.28129E-001	5.98805E-003	0.00000E+000	3.76127E-003	3.59960E-001	-1.12019E+000	3.57660E+000	10	...........
	2	0.04	6.36063E-001	5.99641E-003	0.00000E+000	3.81410E-003	3.59960E-001	-1.11051E+000	3.57660E+000	10	...........
	3	0.053333	6.43649E-001	5.99368E-003	0.00000E+000	3.85782E-003	3.59960E-001	-1.11048E+000	3.57660E+000	10	...........
	4	0.066667	6.50891E-001	5.99675E-003	0.00000E+000	3.90323E-003	3.59960E-001	-1.12070E+000	3.57660E+000	10	...........
	5	0.08	6.57988E-001	5.99400E-003	0.00000E+000	3.94398E-003	3.59960E-001	-1.11058E+000	3.57660E+000	10	...........
	6	0.093333	6.64869E-001	5.99349E-003	0.00000E+000	3.98488E-003	3.59960E-001	-1.11079E+000	3.57660E+000	10	...........
	7	0.106667	6.71728E-001	5.99152E-003	0.00000E+000	4.02467E-003	3.59960E-001	-1.12112E+000	3.57660E+000	10	...........
	8	0.12	6.78479E-001	5.99515E-003	0.00000E+000	4.06758E-003	3.59960E-001	-1.11143E+000	3.57660E+000	10	...........
	9	0.133333	6.85141E-001	5.99296E-003	0.00000E+000	4.10602E-003	3.59960E-001	-1.11110E+000	3.57660E+000	10	...........
	10	0.146667	6.91781E-001	5.98683E-003	0.00000E+000	4.14158E-003	3.59960E-001	-1.12141E+000	3.57660E+000	10	...........
	11	0.16	6.98361E-001	5.99663E-003	0.00000E+000	4.18781E-003	3.59960E-001	-1.11191E+000	3.57660E+000	10	...........
	12	0.173333	7.04904E-001	5.99682E-003	0.00000E+000	4.22718E-003	3.59960E-001	-1.11182E+000	3.57660E+000	10	...........
	13	0.186667	7.11377E-001	5.99609E-003	0.00000E+000	4.26548E-003	3.59960E-001	-1.12216E+000	3.57670E+000	10	...........
	14	0.2	7.17872E-001	5.99322E-003	0.00000E+000	4.30236E-003	3.59960E-001	-1.11213E+000	3.57680E+000	10	...........
	15	0.213333	7.24346E-001	5.99592E-003	0.00000E+000	4.34312E-003	3.59960E-001	-1.11154E+000	3.57680E+000	10	...........
	16	0.226667	7.30713E-001	5.99736E-003	0.00000E+000	4.38235E-003	3.59960E-001	-1.12209E+000	3.57680E+000	10	...........
	17	0.24	7.37102E-001	5.99621E-003	0.00000E+000	4.41982E-003	3.59960E-001	-1.11262E+000	3.57680E+000	10	...........
	18	0.253333	7.43537E-001	5.99183E-003	0.00000E+000	4.45515E-003	3.59960E-001	-1.11225E+000	3.57680E+000	10	...........
	19	0.266667	7.49869E-001	5.99520E-003	0.00000E+000	4.49561E-003	3.59960E-001	-1.12259E+000	3.57680E+000	10	...........
	20	0.28	7.56190E-001	5.99457E-003	0.00000E+000	4.53304E-003	3.59960E-001	-1.11307E+000	3.57680E+000	10	...........
	21	0.293333	7.62510E-001	5.99334E-003	0.00000E+000	4.56998E-003	3.59960E-001	-1.11258E+000	3.57680E+000	10	...........
	22	0.306667	7.68821E-001	5.99393E-003	0.00000E+000	4.60826E-003	3.59960E-001	-1.12318E+000	3.57680E+000	10	...........
	23	0.32	7.75142E-001	5.99866E-003	0.00000E+000	4.64982E-003	3.59960E-001	-1.11376E+000	3.57680E+000	10	...........
	24	0.333333	7.81431E-001	5.99506E-003	0.00000E+000	4.68473E-003	3.59960E-001	-1.11292E+000	3.57680E+000	10	...........
	25	0.346667	7.87718E-001	5.99353E-003	0.00000E+000	4.72121E-003	3.59960E-001	-1.12351E+000	3.57680E+000	10	...........
	26	0.36	7.94057E-001	5.99304E-003	0.00000E+000	4.75881E-003	3.59960E-001	-1.11405E+000	3.57680E+000	10	...........
	27	0.373333	8.00309E-001	5.99146E-003	0.00000E+000	4.79501E-003	3.59960E-001	-1.11328E+000	3.57680E+000	10	...........
	28	0.386667	8.06551E-001	5.99326E-003	0.00000E+000	4.83387E-003	3.59960E-001	-1.12379E+000	3.57680E+000	10	...........
	29	0.4	8.12794E-001	5.98965E-003	0.00000E+000	4.86835E-003	3.59960E-001	-1.11429E+000	3.57680E+000	10	...........
	30	0.413333	8.19035E-001	5.99584E-003	0.00000E+000	4.91080E-003	3.59960E-001	-1.11332E+000	3.57680E+000	10	...........
	31	0.426667	8.25267E-001	5.99408E-003	0.00000E+000	4.94672E-003	3.59960E-001	-1.12412E+000	3.57680E+000	10	...........
	32	0.44	8.31467E-001	5.99116E-003	0.00000E+000	4.98145E-003	3.59960E-001	-1.11506E+000	3.57680E+000	10	...........
	33	0.453333	8.37644E-001	5.99418E-003	0.00000E+000	5.02099E-003	3.59960E-001	-1.11376E+000	3.57680E+000	10	...........
	34	0.466667	8.43850E-001	5.99547E-003	0.00000E+000	5.05928E-003	3.59960E-001	-1.12392E+000	3.57680E+000	10	...........
	35	0.48	8.50019E-001	5.99168E-003	0.00000E+000	5.09304E-003	3.59960E-001	-1.11482E+000	3.57680E+000	10	...........
	36	0.493333	8.56141E-001	5.99272E-003	0.00000E+000	5.13061E-003	3.59960E-001	-1.11341E+000	3.57680E+000	10	...........
	37	0.506667	8.62269E-001	5.98925E-003	0.00000E+000	5.16435E-003	3.59960E-001	-1.12405E+000	3.57680E+000	10	...........
	38	0.52	8.68385E-001	5.99433E-003	0.00000E+000	5.20539E-003	3.59960E-001	-1.11478E+000	3.57680E+000	10	...........
	39	0.533333	8.74509E-001	5.99574E-003	0.00000E+000	5.24333E-003	3.59960E-001	-1.11279E+000	3.57680E+000	10	...........
	40	0.546667	8.80572E-001	5.99613E-003	0.00000E+000	5.28002E-003	3.59960E-001	-1.12331E+000	3.57680E+000	10	...........
	41	0.56	8.86646E-001	5.99310E-003	0.00000E+000	5.31376E-003	3.59960E-001	-1.11473E+000	3.57680E+000	10	...........
	42	0.573333	8.92679E-001	5.99814E-003	0.00000E+000	5.35442E-003	3.59960E-001	-1.11324E+000	3.57680E+000	10	...........
	43	0.586667	8.98698E-001	5.99043E-003	0.00000E+000	5.38359E-003	3.59960E-001	-1.12350E+000	3.57680E+000	10	...........
	44	0.6	9.04696E-001	5.99657E-003	0.00000E+000	5.42507E-003	3.59960E-001	-1.11490E+000	3.57680E+000	10	...........
	45	0.613333	9.10718E-001	5.99125E-003	0.00000E+000	5.45634E-003	3.59960E-001	-1.11300E+000	3.57680E+000	10	...........
	46	0.626667	9.16639E-001	5.99295E-003	0.00000E+000	5.49337E-003	3.59960E-001	-1.12371E+000	3.57680E+000	10	...........
	47	0.64	9.22615E-001	5.99263E-003	0.00000E+000	5.52890E-003	3.59960E-001	-1.11542E+000	3.57680E+000	10	...........
	48	0.653333	9.28484E-001	5.99236E-003	0.00000E+000	5.56381E-003	3.59960E-001	-1.11366E+000	3.57680E+000	10	...........
	49	0.666667	9.34335E-001	5.99647E-003	0.00000E+000	5.60271E-003	3.59960E-001	-1.12399E+000	3.57680E+000	10	...........
	50	0.68	9.40147E-001	5.99615E-003	0.00000E+000	5.63726E-003	3.59960E-001	-1.11549E+000	3.57680E+000	10	...........
	51	0.693333	9.45984E-001	5.99589E-003	0.00000E+000	5.67201E-003	3.59960E-001	-1.11380E+000	3.57680E+000	10	...........
	52	0.706667	9.51757E-001	5.99283E-003	0.00000E+000	5.70372E-003	3.59960E-001	-1.12427E+000	3.57680E+000	10	...........
	53	0.72	9.57473E-001	5.98948E-003	0.00000E+000	5.73477E-003	3.59960E-001	-1.11577E+000	3.57680E+000	10	...........
	54	0.733333	9.63169E-001	5.99416E-003	0.00000E+000	5.77339E-003	3.59960E-001	-1.11364E+000	3.57680E+000	10	...........
	55	0.746667	9.68815E-001	5.99327E-003	0.00000E+000	5.80637E-003	3.59960E-001	-1.12423E+000	3.57680E+000	10	...........
	56	0.76	9.74458E-001	5.99427E-003	0.00000E+000	5.84117E-003	3.59960E-001	-1.11629E+000	3.57680E+000	10	...........
	57	0.773333	9.80048E-001	5.99513E-003	0.00000E+000	5.87551E-003	3.59960E-001	-1.11417E+000	3.57680E+000	10	...........
	58	0.786667	9.85514E-001	5.99240E-003	0.00000E+000	5.90560E-003	3.59960E-001	-1.12447E+000	3.57680E+000	10	...........
	59	0.8	9.90993E-001	5.99577E-003	0.00000E+000	5.94177E-003	3.59960E-001	-1.11636E+000	3.57680E+000	10	...........
	60	0.813333	9.96463E-001	5.99626E-003	0.00000E+000	5.97505E-003	3.59960E-001	-1.11405E+000	3.57680E+000	10	...........
	61	0.816667	9.99824E-001	5.98770E-003	0.00000E+000	5.98665E-003	3.59960E-001	-1.12584E+000	3.57680E+000	10	...........
STARTTIMEOFFSET	QUANT	593.4898	Start Time Offset (s)