Folder: Tesis/Data/CV_CRGO300517_1/PWRCCD_CRGO300517_1/CHARGE_DISCHARGE

File: CHARGE_#1.DTA
EXPLAIN
TAG	PWR800_CHARGE
TITLE	LABEL	PWR Cyclic Charge Discharge (Cell) - Charge Step	Test &Identifier
DATE	LABEL	3-7-2017	Date
TIME	LABEL	14:42:48	Time
NOTES	NOTES	3	&Notes...
	supercap test cell
	0.6mg
	6M KOH
PSTAT	PSTAT	IFC5000-01520	Potentiostat
CAPACITY	QUANT	1.00000E-003	Capacity (A-hr)
CELLTYPE	SELECTOR	1	&Cell Type
WORKINGCONNECTION	SELECTOR	0	&Working Lead
MAXCHARGETIME	VARIABLEANDUNITS	1.00000E+002	s	1.00000E+002	second(s)	Max &Charge Time
CHARGECURRENT	QUANT	6.00000E-004	&Charge Current (A)
VOLTAGEFINISH	TWOPARAM	F	1.00000E-003	3.60000E+003	&Voltage Finish	 I (A) < 	Max Time(s)
SAMPLETIME	QUANT	1.00000E-002	Sa&mple Period (s)
CHARGESTOPAT1	MULTIPARAM	4	1.00000E+000	Charge Stop At &1	Voltage > Limit	V
CHARGESTOPAT2	MULTIPARAM	0	0.00000E+000	Charge Stop At &2	None	N/A
AESBHCSELECTOR	TOGGLE	F	Save Both Half Cells
IRCOMP	TOGGLE	F	IR &Measure
EOC	QUANT	0	Open Circuit (V)
SEQUENCER	TOGGLE	TRUE	Run as Sequence
PSTATMODEL	IQUANT	53	Pstat Model
PSTATSECTION	LABEL	IFC5000-01520	Pstat Section
PSTATSERIALNO	LABEL	01520	Pstat Serial Number
CTRLMODE	IQUANT	0	Control Mode
ELECTROMETER	IQUANT	1	RE=0 or CS=1
IESTAB	IQUANT	0	I/E Stability
CASPEED	IQUANT	4	Control Amp Speed
CONVENTION	IQUANT	1	Current Convention
ICHRANGE	IQUANT	2	Ich Range
ICHRANGEMODE	TOGGLE	T	Ich Auto Range
ICHOFFSETENABLE	TOGGLE	F	Ich Offset Enable
ICHOFFSET	QUANT	0	Ich Offset (V)
ICHFILTER	IQUANT	1	Ich Filter
VCHRANGE	IQUANT	2	Vch Range
VCHRANGEMODE	TOGGLE	T	Vch Auto Range
VCHOFFSETENABLE	TOGGLE	F	Vch Offset Enable
VCHOFFSET	QUANT	0	Vch Offset (V)
VCHFILTER	IQUANT	1	Vch Filter
IERANGELOWERLIMIT	IQUANT	9	I/E Range Lower Limit
IERANGEMODE	TOGGLE	F	I/E AutoRange
IERANGE	IQUANT	9	I/E Range
ACHSELECT	IQUANT	1	Ach Select
ACHRANGE	IQUANT	2	Ach Range
ACHOFFSETENABLE	TOGGLE	F	Ach Offset Enable
ACHOFFSET	QUANT	0	Ach Offset (V)
ACHFILTER	IQUANT	1	Ach Filter
CABLEID	IQUANT	14	Cable ID
DCCALDATE	LABEL	20-10-2016	DC Calibration Date
ACCALDATE	LABEL	12/3/2015	AC Calibration Date
FRAMEWORKVERSION	QUANT	7.01	Framework Version
INSTRUMENTVERSION	LABEL	4.00	Instrument Version
EXPERIMENTABORTED	TOGGLE	T	Experiment Aborted
CURVE	TABLE	1270
	Pt	T	Vf	Im	Vu	Pwr	Sig	Ach	Temp	IERange	Over
	#	s	V	A	V	W	V	V	deg C	#	bits
	0	0.013333	3.62759E-001	5.99245E-004	0.00000E+000	2.17382E-004	3.59960E-001	3.62872E-001	3.57750E+000	9	...........
	15	0.213333	3.72492E-001	6.00357E-004	0.00000E+000	2.23628E-004	3.59960E-001	3.72579E-001	3.57750E+000	9	...........
	30	0.413333	3.80028E-001	6.00223E-004	0.00000E+000	2.28102E-004	3.59960E-001	3.80112E-001	3.57750E+000	9	...........
	45	0.613333	3.87067E-001	6.02139E-004	0.00000E+000	2.33068E-004	3.59960E-001	3.87155E-001	3.57750E+000	9	...........
	60	0.813333	3.93846E-001	6.00086E-004	0.00000E+000	2.36342E-004	3.59960E-001	3.93931E-001	3.57750E+000	9	...........
	75	1.01333	4.00465E-001	6.01099E-004	0.00000E+000	2.40719E-004	3.59960E-001	4.00556E-001	3.57540E+000	9	...........
	90	1.21333	4.06979E-001	6.01855E-004	0.00000E+000	2.44942E-004	3.59960E-001	4.07073E-001	3.57540E+000	9	...........
	105	1.41333	4.13398E-001	6.00818E-004	0.00000E+000	2.48377E-004	3.59960E-001	4.13487E-001	3.57540E+000	9	...........
	120	1.61333	4.19742E-001	6.00602E-004	0.00000E+000	2.52098E-004	3.59960E-001	4.19842E-001	3.57540E+000	9	...........
	135	1.81333	4.26028E-001	6.00362E-004	0.00000E+000	2.55771E-004	3.59960E-001	4.26128E-001	3.57540E+000	9	...........
	150	2.01333	4.32262E-001	6.01148E-004	0.00000E+000	2.59853E-004	3.59960E-001	4.32360E-001	3.57440E+000	9	...........
	165	2.21333	4.38433E-001	6.01024E-004	0.00000E+000	2.63509E-004	3.59960E-001	4.38523E-001	3.57440E+000	9	...........
	180	2.41333	4.44551E-001	6.01458E-004	0.00000E+000	2.67379E-004	3.59960E-001	4.44652E-001	3.57440E+000	9	...........
	195	2.61333	4.50610E-001	6.01192E-004	0.00000E+000	2.70903E-004	3.59960E-001	4.50715E-001	3.57440E+000	9	...........
	210	2.81333	4.56633E-001	6.00741E-004	0.00000E+000	2.74318E-004	3.59960E-001	4.56734E-001	3.57440E+000	9	...........
	225	3.01333	4.62606E-001	6.00331E-004	0.00000E+000	2.77717E-004	3.59960E-001	4.62705E-001	3.57470E+000	9	...........
	240	3.21333	4.68514E-001	5.98437E-004	0.00000E+000	2.80376E-004	3.59960E-001	4.68620E-001	3.57470E+000	9	...........
	255	3.41333	4.74405E-001	6.01552E-004	0.00000E+000	2.85379E-004	3.59960E-001	4.74506E-001	3.57470E+000	9	...........
	270	3.61333	4.80218E-001	6.01074E-004	0.00000E+000	2.88646E-004	3.59960E-001	4.80323E-001	3.57470E+000	9	...........
	285	3.81333	4.85981E-001	6.02109E-004	0.00000E+000	2.92613E-004	3.59960E-001	4.86088E-001	3.57470E+000	9	...........
	300	4.01333	4.91685E-001	5.99728E-004	0.00000E+000	2.94877E-004	3.59960E-001	4.91795E-001	3.57440E+000	9	...........
	315	4.21333	4.97358E-001	6.00866E-004	0.00000E+000	2.98845E-004	3.59960E-001	4.97463E-001	3.57440E+000	9	...........
	330	4.41333	5.02979E-001	6.01394E-004	0.00000E+000	3.02488E-004	3.59960E-001	5.03081E-001	3.57440E+000	9	...........
	345	4.61333	5.08531E-001	6.00469E-004	0.00000E+000	3.05357E-004	3.59960E-001	5.08642E-001	3.57440E+000	9	...........
	360	4.81333	5.14040E-001	6.00914E-004	0.00000E+000	3.08893E-004	3.59960E-001	5.14149E-001	3.57440E+000	9	...........
	375	5.01333	5.19493E-001	6.01571E-004	0.00000E+000	3.12512E-004	3.59960E-001	5.19603E-001	3.57440E+000	9	...........
	390	5.21333	5.24877E-001	6.00429E-004	0.00000E+000	3.15151E-004	3.59960E-001	5.25000E-001	3.57440E+000	9	...........
	405	5.41333	5.30226E-001	6.01391E-004	0.00000E+000	3.18873E-004	3.59960E-001	5.30341E-001	3.57440E+000	9	...........
	420	5.61333	5.35145E-001	5.99916E-004	0.00000E+000	3.21042E-004	3.59960E-001	5.35337E-001	3.57440E+000	9	...........
	435	5.81333	5.40419E-001	6.00091E-004	0.00000E+000	3.24301E-004	3.59960E-001	5.40606E-001	3.57440E+000	9	...........
	450	6.01333	5.45558E-001	6.00042E-004	0.00000E+000	3.27358E-004	3.59960E-001	5.45786E-001	3.57490E+000	9	...........
	465	6.21333	5.50674E-001	6.00003E-004	0.00000E+000	3.30406E-004	3.59960E-001	5.50912E-001	3.57490E+000	9	...........
	480	6.41333	5.55737E-001	5.99874E-004	0.00000E+000	3.33372E-004	3.59960E-001	5.55946E-001	3.57490E+000	9	...........
	495	6.61333	5.60728E-001	6.00643E-004	0.00000E+000	3.36797E-004	3.59960E-001	5.60978E-001	3.57490E+000	9	...........
	510	6.81333	5.65717E-001	6.00984E-004	0.00000E+000	3.39987E-004	3.59960E-001	5.65932E-001	3.57490E+000	9	...........
	525	7.01333	5.70581E-001	6.00378E-004	0.00000E+000	3.42565E-004	3.59960E-001	5.70796E-001	3.57460E+000	9	...........
	540	7.21333	5.75416E-001	6.00477E-004	0.00000E+000	3.45524E-004	3.59960E-001	5.75587E-001	3.57460E+000	9	...........
	555	7.41333	5.80149E-001	6.01837E-004	0.00000E+000	3.49155E-004	3.59960E-001	5.80393E-001	3.57460E+000	9	...........
	570	7.61333	5.84861E-001	6.00883E-004	0.00000E+000	3.51433E-004	3.59960E-001	5.85102E-001	3.57460E+000	9	...........
	585	7.81333	5.89513E-001	6.00121E-004	0.00000E+000	3.53779E-004	3.59960E-001	5.89743E-001	3.57460E+000	9	...........
	600	8.01333	5.94080E-001	6.00717E-004	0.00000E+000	3.56874E-004	3.59960E-001	5.94340E-001	3.57390E+000	9	...........
	615	8.21333	5.98598E-001	5.99350E-004	0.00000E+000	3.58770E-004	3.59960E-001	5.98830E-001	3.57390E+000	9	...........
	630	8.41333	6.03059E-001	6.00876E-004	0.00000E+000	3.62363E-004	3.59960E-001	6.03256E-001	3.57390E+000	9	...........
[...]
	840	11.2133	6.58977E-001	6.00845E-004	0.00000E+000	3.95943E-004	3.59960E-001	6.59189E-001	3.57400E+000	9	...........
	855	11.4133	6.62495E-001	6.00698E-004	0.00000E+000	3.97960E-004	3.59960E-001	6.62734E-001	3.57400E+000	9	...........
	870	11.6133	6.66027E-001	6.01034E-004	0.00000E+000	4.00305E-004	3.59960E-001	6.66244E-001	3.57400E+000	9	...........
	885	11.8133	6.69423E-001	6.01484E-004	0.00000E+000	4.02648E-004	3.59960E-001	6.69660E-001	3.57400E+000	9	...........
	900	12.0133	6.72812E-001	5.99996E-004	0.00000E+000	4.03684E-004	3.59960E-001	6.73035E-001	3.57390E+000	9	...........
	915	12.2133	6.76131E-001	6.01593E-004	0.00000E+000	4.06755E-004	3.59960E-001	6.76352E-001	3.57390E+000	9	...........
	930	12.4133	6.79422E-001	6.00236E-004	0.00000E+000	4.07814E-004	3.59960E-001	6.79655E-001	3.57390E+000	9	...........
	945	12.6133	6.82629E-001	6.00089E-004	0.00000E+000	4.09639E-004	3.59960E-001	6.82830E-001	3.57390E+000	9	...........
	960	12.8133	6.85824E-001	6.00951E-004	0.00000E+000	4.12147E-004	3.59960E-001	6.86057E-001	3.57390E+000	9	...........
	975	13.0133	6.88919E-001	5.99855E-004	0.00000E+000	4.13251E-004	3.59960E-001	6.89154E-001	3.57440E+000	9	...........
	990	13.2133	6.92021E-001	6.01480E-004	0.00000E+000	4.16237E-004	3.59960E-001	6.92265E-001	3.57440E+000	9	...........
	1005	13.4133	6.95082E-001	6.02658E-004	0.00000E+000	4.18897E-004	3.59960E-001	6.95294E-001	3.57440E+000	9	...........
	1020	13.6133	6.98047E-001	6.02322E-004	0.00000E+000	4.20449E-004	3.59960E-001	6.98285E-001	3.57440E+000	9	...........
	1035	13.8133	7.01011E-001	6.03647E-004	0.00000E+000	4.23163E-004	3.59960E-001	7.01223E-001	3.57440E+000	9	...........
	1050	14.0133	7.03926E-001	6.00134E-004	0.00000E+000	4.22450E-004	3.59960E-001	7.04165E-001	3.57460E+000	9	...........
	1065	14.2133	7.06808E-001	5.99004E-004	0.00000E+000	4.23381E-004	3.59960E-001	7.07036E-001	3.57460E+000	9	...........
	1080	14.4133	7.09635E-001	6.00637E-004	0.00000E+000	4.26234E-004	3.59960E-001	7.09869E-001	3.57460E+000	9	...........
	1095	14.6133	7.12406E-001	6.00261E-004	0.00000E+000	4.27630E-004	3.59960E-001	7.12654E-001	3.57460E+000	9	...........
	1110	14.8133	7.15164E-001	5.99752E-004	0.00000E+000	4.28921E-004	3.59960E-001	7.15438E-001	3.57460E+000	9	...........
	1125	15.0133	7.17980E-001	6.01572E-004	0.00000E+000	4.31916E-004	3.59960E-001	7.18205E-001	3.57390E+000	9	...........
	1140	15.2133	7.20662E-001	6.00551E-004	0.00000E+000	4.32794E-004	3.59960E-001	7.20890E-001	3.57390E+000	9	...........
	1155	15.4133	7.23320E-001	6.02185E-004	0.00000E+000	4.35572E-004	3.59960E-001	7.23548E-001	3.57390E+000	9	...........
	1170	15.6133	7.25960E-001	6.00562E-004	0.00000E+000	4.35984E-004	3.59960E-001	7.26159E-001	3.57390E+000	9	...........
	1185	15.8133	7.28557E-001	6.00783E-004	0.00000E+000	4.37705E-004	3.59960E-001	7.28793E-001	3.57390E+000	9	...........
	1200	16.0133	7.31093E-001	5.99939E-004	0.00000E+000	4.38612E-004	3.59960E-001	7.31345E-001	3.57390E+000	9	...........
	1215	16.2133	7.33634E-001	6.00779E-004	0.00000E+000	4.40752E-004	3.59960E-001	7.33889E-001	3.57390E+000	9	...........
	1230	16.4133	7.36174E-001	6.00260E-004	0.00000E+000	4.41896E-004	3.59960E-001	7.36401E-001	3.57390E+000	9	...........
	1245	16.6133	7.38650E-001	6.00343E-004	0.00000E+000	4.43443E-004	3.59960E-001	7.38903E-001	3.57390E+000	9	...........
	1260	16.8133	7.41114E-001	6.01458E-004	0.00000E+000	4.45750E-004	3.59960E-001	7.41355E-001	3.57390E+000	9	...........
	1269	16.9333	7.42580E-001	5.99450E-004	0.00000E+000	4.45139E-004	3.59960E-001	7.42845E-001	3.57430E+000	9	...........

File: CHARGE_#2.DTA
EXPLAIN
TAG	PWR800_CHARGE
TITLE	LABEL	PWR Cyclic Charge Discharge (Cell) - Charge Step	Test &Identifier
DATE	LABEL	22-6-2017	Date
TIME	LABEL	15:34:59	Time
NOTES	NOTES	3	&Notes...
	supercap test cell
	0.6mg
	6M KOH
PSTAT	PSTAT	IFC5000-01520	Potentiostat
CAPACITY	QUANT	1.00000E-003	Capacity (A-hr)
CELLTYPE	SELECTOR	1	&Cell Type
WORKINGCONNECTION	SELECTOR	0	&Working Lead
MAXCHARGETIME	VARIABLEANDUNITS	1.00000E+002	s	1.00000E+002	second(s)	Max &Charge Time
CHARGECURRENT	QUANT	6.00000E-003	&Charge Current (A)
VOLTAGEFINISH	TWOPARAM	F	1.00000E-003	3.60000E+003	&Voltage Finish	 I (A) < 	Max Time(s)
SAMPLETIME	QUANT	1.00000E-002	Sa&mple Period (s)
CHARGESTOPAT1	MULTIPARAM	4	1.00000E+000	Charge Stop At &1	Voltage > Limit	V
CHARGESTOPAT2	MULTIPARAM	0	0.00000E+000	Charge Stop At &2	None	N/A
AESBHCSELECTOR	TOGGLE	F	Save Both Half Cells
IRCOMP	TOGGLE	F	IR &Measure
EOC	QUANT	0	Open Circuit (V)
SEQUENCER	TOGGLE	TRUE	Run as Sequence
PSTATMODEL	IQUANT	53	Pstat Model
PSTATSECTION	LABEL	IFC5000-01520	Pstat Section
PSTATSERIALNO	LABEL	01520	Pstat Serial Number
CTRLMODE	IQUANT	0	Control Mode
ELECTROMETER	IQUANT	1	RE=0 or CS=1
IESTAB	IQUANT	0	I/E Stability
CASPEED	IQUANT	4	Control Amp Speed
CONVENTION	IQUANT	1	Current Convention
ICHRANGE	IQUANT	2	Ich Range
ICHRANGEMODE	TOGGLE	T	Ich Auto Range
ICHOFFSETENABLE	TOGGLE	F	Ich Offset Enable
ICHOFFSET	QUANT	0	Ich Offset (V)
ICHFILTER	IQUANT	1	Ich Filter
VCHRANGE	IQUANT	2	Vch Range
VCHRANGEMODE	TOGGLE	T	Vch Auto Range
VCHOFFSETENABLE	TOGGLE	F	Vch Offset Enable
VCHOFFSET	QUANT	0	Vch Offset (V)
VCHFILTER	IQUANT	1	Vch Filter
IERANGELOWERLIMIT	IQUANT	9	I/E Range Lower Limit
IERANGEMODE	TOGGLE	F	I/E AutoRange
IERANGE	IQUANT	10	I/E Range
ACHSELECT	IQUANT	1	Ach Select
ACHRANGE	IQUANT	2	Ach Range
ACHOFFSETENABLE	TOGGLE	F	Ach Offset Enable
ACHOFFSET	QUANT	0	Ach Offset (V)
ACHFILTER	IQUANT	1	Ach Filter
CABLEID	IQUANT	14	Cable ID
DCCALDATE	LABEL	20-10-2016	DC Calibration Date
ACCALDATE	LABEL	12/3/2015	AC Calibration Date
FRAMEWORKVERSION	QUANT	7.01	Framework Version
INSTRUMENTVERSION	LABEL	4.00	Instrument Version
CURVE	TABLE	84
	Pt	T	Vf	Im	Vu	Pwr	Sig	Ach	Temp	IERange	Over
	#	s	V	A	V	W	V	V	deg C	#	bits
	0	0.013333	5.58112E-001	5.99261E-003	0.00000E+000	3.34455E-003	3.59960E-001	-9.96894E-001	3.57740E+000	10	...........
	1	0.026667	5.65698E-001	5.99346E-003	0.00000E+000	3.39049E-003	3.59960E-001	-1.00835E+000	3.57740E+000	10	...........
	2	0.04	5.72612E-001	5.99389E-003	0.00000E+000	3.43217E-003	3.59960E-001	-9.97428E-001	3.57740E+000	10	...........
	3	0.053333	5.79171E-001	5.99594E-003	0.00000E+000	3.47267E-003	3.59960E-001	-9.96681E-001	3.57740E+000	10	...........
	4	0.066667	5.85416E-001	5.99595E-003	0.00000E+000	3.51012E-003	3.59960E-001	-1.00833E+000	3.57740E+000	10	...........
	5	0.08	5.91532E-001	5.99426E-003	0.00000E+000	3.54580E-003	3.59960E-001	-9.97191E-001	3.57740E+000	10	...........
	6	0.093333	5.97480E-001	5.99282E-003	0.00000E+000	3.58059E-003	3.59960E-001	-9.96893E-001	3.57740E+000	10	...........
	7	0.106667	6.03279E-001	5.99506E-003	0.00000E+000	3.61669E-003	3.59960E-001	-1.00772E+000	3.57740E+000	10	...........
	8	0.12	6.09001E-001	5.99589E-003	0.00000E+000	3.65150E-003	3.59960E-001	-9.96804E-001	3.57740E+000	10	...........
	9	0.133333	6.14692E-001	5.99616E-003	0.00000E+000	3.68579E-003	3.59960E-001	-9.96412E-001	3.57740E+000	10	...........
	10	0.146667	6.20295E-001	5.99440E-003	0.00000E+000	3.71829E-003	3.59960E-001	-1.00775E+000	3.57740E+000	10	...........
	11	0.16	6.25894E-001	5.99365E-003	0.00000E+000	3.75139E-003	3.59960E-001	-9.96782E-001	3.57740E+000	10	...........
	12	0.173333	6.31394E-001	5.99375E-003	0.00000E+000	3.78442E-003	3.59960E-001	-9.96359E-001	3.57740E+000	10	...........
	13	0.186667	6.36858E-001	5.99601E-003	0.00000E+000	3.81861E-003	3.59960E-001	-1.00785E+000	3.57740E+000	10	...........
	14	0.2	6.42268E-001	5.98761E-003	0.00000E+000	3.84565E-003	3.59960E-001	-9.96921E-001	3.57740E+000	10	...........
	15	0.213333	6.47661E-001	5.99328E-003	0.00000E+000	3.88162E-003	3.59960E-001	-9.96569E-001	3.57740E+000	10	...........
	16	0.226667	6.53082E-001	5.99095E-003	0.00000E+000	3.91258E-003	3.59960E-001	-1.00785E+000	3.57740E+000	10	...........
	17	0.24	6.58440E-001	5.99547E-003	0.00000E+000	3.94766E-003	3.59960E-001	-9.96643E-001	3.57740E+000	10	...........
	18	0.253333	6.63792E-001	5.98959E-003	0.00000E+000	3.97584E-003	3.59960E-001	-9.96321E-001	3.57740E+000	10	...........
	19	0.266667	6.69112E-001	5.99365E-003	0.00000E+000	4.01042E-003	3.59960E-001	-1.00782E+000	3.57740E+000	10	...........
	20	0.28	6.74399E-001	5.99198E-003	0.00000E+000	4.04098E-003	3.59960E-001	-9.97008E-001	3.57740E+000	10	...........
	21	0.293333	6.79682E-001	5.99390E-003	0.00000E+000	4.07394E-003	3.59960E-001	-9.96324E-001	3.57740E+000	10	...........
	22	0.306667	6.84914E-001	5.99228E-003	0.00000E+000	4.10419E-003	3.59960E-001	-1.00751E+000	3.57740E+000	10	...........
	23	0.32	6.90179E-001	5.99295E-003	0.00000E+000	4.13621E-003	3.59960E-001	-9.96842E-001	3.57740E+000	10	...........
	24	0.333333	6.95489E-001	5.99455E-003	0.00000E+000	4.16915E-003	3.59960E-001	-9.96314E-001	3.57740E+000	10	...........
	25	0.346667	7.00708E-001	5.99422E-003	0.00000E+000	4.20020E-003	3.59960E-001	-1.00803E+000	3.57740E+000	10	...........
	26	0.36	7.05923E-001	5.99417E-003	0.00000E+000	4.23142E-003	3.59960E-001	-9.96967E-001	3.57740E+000	10	...........
	27	0.373333	7.11141E-001	5.99448E-003	0.00000E+000	4.26292E-003	3.59960E-001	-9.96363E-001	3.57740E+000	10	...........
	28	0.386667	7.16370E-001	5.99379E-003	0.00000E+000	4.29377E-003	3.59960E-001	-1.00773E+000	3.57740E+000	10	...........
	29	0.4	7.21640E-001	5.99750E-003	0.00000E+000	4.32804E-003	3.59960E-001	-9.97082E-001	3.57740E+000	10	...........
	30	0.413333	7.26825E-001	5.99350E-003	0.00000E+000	4.35623E-003	3.59960E-001	-9.96493E-001	3.57740E+000	10	...........
	31	0.426667	7.32044E-001	5.99127E-003	0.00000E+000	4.38587E-003	3.59960E-001	-1.00744E+000	3.57740E+000	10	...........
	32	0.44	7.37259E-001	5.99256E-003	0.00000E+000	4.41807E-003	3.59960E-001	-9.96589E-001	3.57740E+000	10	...........
	33	0.453333	7.42491E-001	5.99652E-003	0.00000E+000	4.45237E-003	3.59960E-001	-9.96119E-001	3.57740E+000	10	...........
	34	0.466667	7.47707E-001	5.99475E-003	0.00000E+000	4.48232E-003	3.59960E-001	-1.00761E+000	3.57740E+000	10	...........
	35	0.48	7.52908E-001	5.99426E-003	0.00000E+000	4.51312E-003	3.59960E-001	-9.96929E-001	3.57740E+000	10	...........
	36	0.493333	7.58120E-001	5.99401E-003	0.00000E+000	4.54418E-003	3.59960E-001	-9.96153E-001	3.57740E+000	10	...........
	37	0.506667	7.63324E-001	5.98995E-003	0.00000E+000	4.57227E-003	3.59960E-001	-1.00741E+000	3.57740E+000	10	...........
	38	0.52	7.68521E-001	5.99214E-003	0.00000E+000	4.60509E-003	3.59960E-001	-9.96532E-001	3.57740E+000	10	...........
	39	0.533333	7.73702E-001	5.99178E-003	0.00000E+000	4.63585E-003	3.59960E-001	-9.96046E-001	3.57740E+000	10	...........
	40	0.546667	7.78911E-001	5.99184E-003	0.00000E+000	4.66711E-003	3.59960E-001	-1.00748E+000	3.57740E+000	10	...........
	41	0.56	7.84105E-001	5.99413E-003	0.00000E+000	4.70003E-003	3.59960E-001	-9.96527E-001	3.57740E+000	10	...........
	42	0.573333	7.89312E-001	5.99214E-003	0.00000E+000	4.72967E-003	3.59960E-001	-9.95836E-001	3.57740E+000	10	...........
[...]
	54	0.733333	8.51887E-001	5.99310E-003	0.00000E+000	5.10544E-003	3.59960E-001	-9.95873E-001	3.58100E+000	10	...........
	55	0.746667	8.57085E-001	5.99490E-003	0.00000E+000	5.13814E-003	3.59960E-001	-1.00705E+000	3.58100E+000	10	...........
	56	0.76	8.62291E-001	5.99479E-003	0.00000E+000	5.16925E-003	3.59960E-001	-9.96203E-001	3.58100E+000	10	...........
	57	0.773333	8.67471E-001	5.99559E-003	0.00000E+000	5.20100E-003	3.59960E-001	-9.95522E-001	3.58100E+000	10	...........
	58	0.786667	8.72677E-001	5.99357E-003	0.00000E+000	5.23045E-003	3.59960E-001	-1.00711E+000	3.58100E+000	10	...........
	59	0.8	8.77880E-001	5.99729E-003	0.00000E+000	5.26490E-003	3.59960E-001	-9.96339E-001	3.58100E+000	10	...........
	60	0.813333	8.83105E-001	5.99289E-003	0.00000E+000	5.29235E-003	3.59960E-001	-9.95574E-001	3.58100E+000	10	...........
	61	0.826667	8.88325E-001	5.99281E-003	0.00000E+000	5.32357E-003	3.59960E-001	-1.00699E+000	3.58100E+000	10	...........
	62	0.84	8.93485E-001	5.99317E-003	0.00000E+000	5.35480E-003	3.59960E-001	-9.96249E-001	3.58100E+000	10	...........
	63	0.853333	8.98667E-001	5.99158E-003	0.00000E+000	5.38443E-003	3.59960E-001	-9.95444E-001	3.58100E+000	10	...........
	64	0.866667	9.03848E-001	5.99483E-003	0.00000E+000	5.41842E-003	3.59960E-001	-1.00707E+000	3.58100E+000	10	...........
	65	0.88	9.09054E-001	5.99510E-003	0.00000E+000	5.44987E-003	3.59960E-001	-9.96403E-001	3.58100E+000	10	...........
	66	0.893333	9.14185E-001	5.99433E-003	0.00000E+000	5.47993E-003	3.59960E-001	-9.95656E-001	3.58100E+000	10	...........
	67	0.906667	9.19309E-001	5.99061E-003	0.00000E+000	5.50722E-003	3.59960E-001	-1.00693E+000	3.58100E+000	10	...........
	68	0.92	9.24531E-001	5.99526E-003	0.00000E+000	5.54281E-003	3.59960E-001	-9.96206E-001	3.58100E+000	10	...........
	69	0.933333	9.29680E-001	5.99240E-003	0.00000E+000	5.57102E-003	3.59960E-001	-9.95457E-001	3.58100E+000	10	...........
	70	0.946667	9.34827E-001	5.99389E-003	0.00000E+000	5.60325E-003	3.59960E-001	-1.00726E+000	3.58100E+000	10	...........
	71	0.96	9.39929E-001	5.99163E-003	0.00000E+000	5.63171E-003	3.59960E-001	-9.96493E-001	3.58100E+000	10	...........
	72	0.97333	9.45099E-001	5.99498E-003	0.00000E+000	5.66585E-003	3.59960E-001	-9.95682E-001	3.58100E+000	10	...........
	73	0.98667	9.50192E-001	5.99527E-003	0.00000E+000	5.69666E-003	3.59960E-001	-1.00719E+000	3.58100E+000	10	...........
	74	1	9.55275E-001	5.99471E-003	0.00000E+000	5.72660E-003	3.59960E-001	-9.96428E-001	3.58100E+000	10	...........
	75	1.01333	9.60324E-001	5.99358E-003	0.00000E+000	5.75578E-003	3.59960E-001	-9.95832E-001	3.58100E+000	10	...........
	76	1.02667	9.65341E-001	5.99622E-003	0.00000E+000	5.78840E-003	3.59960E-001	-1.00721E+000	3.58100E+000	10	...........
	77	1.04	9.70389E-001	5.99391E-003	0.00000E+000	5.81642E-003	3.59960E-001	-9.96204E-001	3.58100E+000	10	...........
	78	1.05333	9.75397E-001	5.99435E-003	0.00000E+000	5.84688E-003	3.59960E-001	-9.95626E-001	3.58100E+000	10	...........
	79	1.06667	9.80414E-001	5.99500E-003	0.00000E+000	5.87758E-003	3.59960E-001	-1.00697E+000	3.58100E+000	10	...........
	80	1.08	9.85321E-001	5.99370E-003	0.00000E+000	5.90572E-003	3.59960E-001	-9.96237E-001	3.58100E+000	10	...........
	81	1.09333	9.90265E-001	5.99171E-003	0.00000E+000	5.93338E-003	3.59960E-001	-9.95263E-001	3.58100E+000	10	...........
	82	1.10667	9.95117E-001	5.99201E-003	0.00000E+000	5.96275E-003	3.59960E-001	-1.00689E+000	3.58100E+000	10	...........
	83	1.115	9.99118E-001	5.99267E-003	0.00000E+000	5.98739E-003	3.59960E-001	-9.87861E-001	3.58100E+000	10	...........
STARTTIMEOFFSET	QUANT	2.458333	Start Time Offset (s)