Folder: Tesis/Data/CV_CRGO300517_1/PWRCCD_CRGO300517_1/CHARGE_DISCHARGE (part 58)

File: CHARGE_#115.DTA
EXPLAIN
TAG	PWR800_CHARGE
TITLE	LABEL	PWR Cyclic Charge Discharge (Cell) - Charge Step	Test &Identifier
DATE	LABEL	22-6-2017	Date
TIME	LABEL	15:40:09	Time
NOTES	NOTES	3	&Notes...
	supercap test cell
	0.6mg
	6M KOH
PSTAT	PSTAT	IFC5000-01520	Potentiostat
CAPACITY	QUANT	1.00000E-003	Capacity (A-hr)
CELLTYPE	SELECTOR	1	&Cell Type
WORKINGCONNECTION	SELECTOR	0	&Working Lead
MAXCHARGETIME	VARIABLEANDUNITS	1.00000E+002	s	1.00000E+002	second(s)	Max &Charge Time
CHARGECURRENT	QUANT	6.00000E-003	&Charge Current (A)
VOLTAGEFINISH	TWOPARAM	F	1.00000E-003	3.60000E+003	&Voltage Finish	 I (A) < 	Max Time(s)
SAMPLETIME	QUANT	1.00000E-002	Sa&mple Period (s)
CHARGESTOPAT1	MULTIPARAM	4	1.00000E+000	Charge Stop At &1	Voltage > Limit	V
CHARGESTOPAT2	MULTIPARAM	0	0.00000E+000	Charge Stop At &2	None	N/A
AESBHCSELECTOR	TOGGLE	F	Save Both Half Cells
IRCOMP	TOGGLE	F	IR &Measure
EOC	QUANT	0	Open Circuit (V)
SEQUENCER	TOGGLE	TRUE	Run as Sequence
PSTATMODEL	IQUANT	53	Pstat Model
PSTATSECTION	LABEL	IFC5000-01520	Pstat Section
PSTATSERIALNO	LABEL	01520	Pstat Serial Number
CTRLMODE	IQUANT	0	Control Mode
ELECTROMETER	IQUANT	1	RE=0 or CS=1
IESTAB	IQUANT	0	I/E Stability
CASPEED	IQUANT	4	Control Amp Speed
CONVENTION	IQUANT	1	Current Convention
ICHRANGE	IQUANT	2	Ich Range
ICHRANGEMODE	TOGGLE	T	Ich Auto Range
ICHOFFSETENABLE	TOGGLE	F	Ich Offset Enable
ICHOFFSET	QUANT	0	Ich Offset (V)
ICHFILTER	IQUANT	1	Ich Filter
VCHRANGE	IQUANT	2	Vch Range
VCHRANGEMODE	TOGGLE	T	Vch Auto Range
VCHOFFSETENABLE	TOGGLE	F	Vch Offset Enable
VCHOFFSET	QUANT	0	Vch Offset (V)
VCHFILTER	IQUANT	1	Vch Filter
IERANGELOWERLIMIT	IQUANT	9	I/E Range Lower Limit
IERANGEMODE	TOGGLE	F	I/E AutoRange
IERANGE	IQUANT	10	I/E Range
ACHSELECT	IQUANT	1	Ach Select
ACHRANGE	IQUANT	2	Ach Range
ACHOFFSETENABLE	TOGGLE	F	Ach Offset Enable
ACHOFFSET	QUANT	0	Ach Offset (V)
ACHFILTER	IQUANT	1	Ach Filter
CABLEID	IQUANT	14	Cable ID
DCCALDATE	LABEL	20-10-2016	DC Calibration Date
ACCALDATE	LABEL	12/3/2015	AC Calibration Date
FRAMEWORKVERSION	QUANT	7.01	Framework Version
INSTRUMENTVERSION	LABEL	4.00	Instrument Version
CURVE	TABLE	69
	Pt	T	Vf	Im	Vu	Pwr	Sig	Ach	Temp	IERange	Over
	#	s	V	A	V	W	V	V	deg C	#	bits
	0	0.013333	5.91771E-001	5.99482E-003	0.00000E+000	3.54756E-003	3.59960E-001	-1.06451E+000	3.57840E+000	10	...........
	1	0.026667	6.00061E-001	5.99165E-003	0.00000E+000	3.59536E-003	3.59960E-001	-1.06837E+000	3.57840E+000	10	...........
	2	0.04	6.07628E-001	5.99093E-003	0.00000E+000	3.64026E-003	3.59960E-001	-1.07517E+000	3.57840E+000	10	...........
	3	0.053333	6.14840E-001	5.99390E-003	0.00000E+000	3.68529E-003	3.59960E-001	-1.06428E+000	3.57840E+000	10	...........
	4	0.066667	6.21827E-001	5.99504E-003	0.00000E+000	3.72788E-003	3.59960E-001	-1.06814E+000	3.57840E+000	10	...........
	5	0.08	6.28572E-001	5.99523E-003	0.00000E+000	3.76843E-003	3.59960E-001	-1.07536E+000	3.57840E+000	10	...........
	6	0.093333	6.35145E-001	5.99536E-003	0.00000E+000	3.80792E-003	3.59960E-001	-1.06427E+000	3.57840E+000	10	...........
	7	0.106667	6.41634E-001	5.99374E-003	0.00000E+000	3.84579E-003	3.59960E-001	-1.06769E+000	3.57840E+000	10	...........
	8	0.12	6.48021E-001	5.99498E-003	0.00000E+000	3.88488E-003	3.59960E-001	-1.07520E+000	3.57840E+000	10	...........
	9	0.133333	6.54364E-001	5.99467E-003	0.00000E+000	3.92269E-003	3.59960E-001	-1.06415E+000	3.57840E+000	10	...........
	10	0.146667	6.60642E-001	5.99501E-003	0.00000E+000	3.96056E-003	3.59960E-001	-1.06761E+000	3.57840E+000	10	...........
	11	0.16	6.66900E-001	5.99512E-003	0.00000E+000	3.99814E-003	3.59960E-001	-1.07533E+000	3.57840E+000	10	...........
	12	0.173333	6.73104E-001	5.99391E-003	0.00000E+000	4.03452E-003	3.59960E-001	-1.06380E+000	3.57840E+000	10	...........
	13	0.186667	6.79229E-001	5.99317E-003	0.00000E+000	4.07073E-003	3.59960E-001	-1.06719E+000	3.57840E+000	10	...........
	14	0.2	6.85370E-001	5.99110E-003	0.00000E+000	4.10612E-003	3.59960E-001	-1.07561E+000	3.57840E+000	10	...........
	15	0.213333	6.91466E-001	5.99394E-003	0.00000E+000	4.14460E-003	3.59960E-001	-1.06427E+000	3.57840E+000	10	...........
	16	0.226667	6.97518E-001	5.99111E-003	0.00000E+000	4.17891E-003	3.59960E-001	-1.06720E+000	3.57840E+000	10	...........
	17	0.24	7.03553E-001	5.98921E-003	0.00000E+000	4.21373E-003	3.59960E-001	-1.07573E+000	3.57840E+000	10	...........
	18	0.253333	7.09583E-001	5.99465E-003	0.00000E+000	4.25370E-003	3.59960E-001	-1.06399E+000	3.57840E+000	10	...........
	19	0.266667	7.15614E-001	5.99196E-003	0.00000E+000	4.28793E-003	3.59960E-001	-1.06717E+000	3.57840E+000	10	...........
	20	0.28	7.21650E-001	5.99395E-003	0.00000E+000	4.32553E-003	3.59960E-001	-1.07563E+000	3.57840E+000	10	...........
	21	0.293333	7.27653E-001	5.99820E-003	0.00000E+000	4.36461E-003	3.59960E-001	-1.06417E+000	3.57840E+000	10	...........
	22	0.306667	7.33616E-001	5.99163E-003	0.00000E+000	4.39555E-003	3.59960E-001	-1.06669E+000	3.57840E+000	10	...........
	23	0.32	7.39598E-001	5.99214E-003	0.00000E+000	4.43178E-003	3.59960E-001	-1.07540E+000	3.57840E+000	10	...........
	24	0.333333	7.45615E-001	5.98917E-003	0.00000E+000	4.46561E-003	3.59960E-001	-1.06372E+000	3.57840E+000	10	...........
	25	0.346667	7.51558E-001	5.99227E-003	0.00000E+000	4.50354E-003	3.59960E-001	-1.06635E+000	3.57840E+000	10	...........
	26	0.36	7.57531E-001	5.99302E-003	0.00000E+000	4.53990E-003	3.59960E-001	-1.07532E+000	3.57840E+000	10	...........
	27	0.373333	7.63478E-001	5.99351E-003	0.00000E+000	4.57591E-003	3.59960E-001	-1.06366E+000	3.57840E+000	10	...........
	28	0.386667	7.69450E-001	5.99353E-003	0.00000E+000	4.61172E-003	3.59960E-001	-1.06614E+000	3.57840E+000	10	...........
	29	0.4	7.75383E-001	5.99401E-003	0.00000E+000	4.64766E-003	3.59960E-001	-1.07552E+000	3.57820E+000	10	...........
	30	0.413333	7.81324E-001	5.99488E-003	0.00000E+000	4.68394E-003	3.59960E-001	-1.06404E+000	3.57760E+000	10	...........
	31	0.426667	7.87238E-001	5.99355E-003	0.00000E+000	4.71835E-003	3.59960E-001	-1.06604E+000	3.57760E+000	10	...........
	32	0.44	7.93193E-001	5.99520E-003	0.00000E+000	4.75535E-003	3.59960E-001	-1.07526E+000	3.57760E+000	10	...........
	33	0.453333	7.99180E-001	5.99861E-003	0.00000E+000	4.79397E-003	3.59960E-001	-1.06379E+000	3.57760E+000	10	...........
	34	0.466667	8.05058E-001	5.99673E-003	0.00000E+000	4.82772E-003	3.59960E-001	-1.06591E+000	3.57760E+000	10	...........
	35	0.48	8.10993E-001	5.99592E-003	0.00000E+000	4.86265E-003	3.59960E-001	-1.07566E+000	3.57760E+000	10	...........
	36	0.493333	8.16873E-001	5.99383E-003	0.00000E+000	4.89620E-003	3.59960E-001	-1.06376E+000	3.57760E+000	10	...........
	37	0.506667	8.22797E-001	5.99350E-003	0.00000E+000	4.93143E-003	3.59960E-001	-1.06555E+000	3.57760E+000	10	...........
	38	0.52	8.28706E-001	5.99406E-003	0.00000E+000	4.96731E-003	3.59960E-001	-1.07561E+000	3.57760E+000	10	...........
	39	0.533333	8.34604E-001	5.99318E-003	0.00000E+000	5.00193E-003	3.59960E-001	-1.06406E+000	3.57760E+000	10	...........
	40	0.546667	8.40503E-001	5.99490E-003	0.00000E+000	5.03873E-003	3.59960E-001	-1.06565E+000	3.57760E+000	10	...........
	41	0.56	8.46408E-001	5.99478E-003	0.00000E+000	5.07403E-003	3.59960E-001	-1.07584E+000	3.57760E+000	10	...........
	42	0.573333	8.52281E-001	5.99472E-003	0.00000E+000	5.10918E-003	3.59960E-001	-1.06399E+000	3.57760E+000	10	...........
	43	0.586667	8.58164E-001	5.99306E-003	0.00000E+000	5.14303E-003	3.59960E-001	-1.06547E+000	3.57760E+000	10	...........
	44	0.6	8.63997E-001	5.99460E-003	0.00000E+000	5.17932E-003	3.59960E-001	-1.07606E+000	3.57760E+000	10	...........
	45	0.613333	8.69860E-001	5.99537E-003	0.00000E+000	5.21513E-003	3.59960E-001	-1.06412E+000	3.57760E+000	10	...........
	46	0.626667	8.75681E-001	5.99381E-003	0.00000E+000	5.24866E-003	3.59960E-001	-1.06543E+000	3.57760E+000	10	...........
	47	0.64	8.81539E-001	5.99442E-003	0.00000E+000	5.28431E-003	3.59960E-001	-1.07555E+000	3.57760E+000	10	...........
	48	0.653333	8.87381E-001	5.99452E-003	0.00000E+000	5.31942E-003	3.59960E-001	-1.06351E+000	3.57760E+000	10	...........
	49	0.666667	8.93186E-001	5.99326E-003	0.00000E+000	5.35309E-003	3.59960E-001	-1.06492E+000	3.57760E+000	10	...........
	50	0.68	8.99029E-001	5.99724E-003	0.00000E+000	5.39170E-003	3.59960E-001	-1.07576E+000	3.57760E+000	10	...........
	51	0.693333	9.04774E-001	5.99643E-003	0.00000E+000	5.42541E-003	3.59960E-001	-1.06370E+000	3.57760E+000	10	...........
	52	0.706667	9.10550E-001	5.99357E-003	0.00000E+000	5.45745E-003	3.59960E-001	-1.06466E+000	3.57760E+000	10	...........
	53	0.72	9.16276E-001	5.99499E-003	0.00000E+000	5.49306E-003	3.59960E-001	-1.07566E+000	3.57760E+000	10	...........
	54	0.733333	9.22019E-001	5.99649E-003	0.00000E+000	5.52888E-003	3.59960E-001	-1.06380E+000	3.57760E+000	10	...........
	55	0.746667	9.27754E-001	5.99317E-003	0.00000E+000	5.56018E-003	3.59960E-001	-1.06489E+000	3.57760E+000	10	...........
	56	0.76	9.33429E-001	5.99316E-003	0.00000E+000	5.59419E-003	3.59960E-001	-1.07566E+000	3.57760E+000	10	...........
	57	0.773333	9.39069E-001	5.99454E-003	0.00000E+000	5.62929E-003	3.59960E-001	-1.06358E+000	3.57760E+000	10	...........
	58	0.786667	9.44697E-001	5.99808E-003	0.00000E+000	5.66637E-003	3.59960E-001	-1.06442E+000	3.57760E+000	10	...........
	59	0.8	9.50353E-001	5.99658E-003	0.00000E+000	5.69887E-003	3.59960E-001	-1.07570E+000	3.57760E+000	10	...........
	60	0.813333	9.55893E-001	5.99373E-003	0.00000E+000	5.72936E-003	3.59960E-001	-1.06385E+000	3.57760E+000	10	...........
	61	0.826667	9.61432E-001	5.99648E-003	0.00000E+000	5.76521E-003	3.59960E-001	-1.06432E+000	3.57760E+000	10	...........
	62	0.84	9.66954E-001	5.99281E-003	0.00000E+000	5.79477E-003	3.59960E-001	-1.07556E+000	3.57760E+000	10	...........
	63	0.853333	9.72503E-001	5.99623E-003	0.00000E+000	5.83135E-003	3.59960E-001	-1.06393E+000	3.57760E+000	10	...........
	64	0.866667	9.77973E-001	5.99566E-003	0.00000E+000	5.86359E-003	3.59960E-001	-1.06441E+000	3.57760E+000	10	...........
	65	0.88	9.83428E-001	5.99155E-003	0.00000E+000	5.89226E-003	3.59960E-001	-1.07594E+000	3.57760E+000	10	...........
	66	0.893333	9.88804E-001	5.99176E-003	0.00000E+000	5.92467E-003	3.59960E-001	-1.06423E+000	3.57760E+000	10	...........
	67	0.906667	9.94122E-001	5.99131E-003	0.00000E+000	5.95609E-003	3.59960E-001	-1.06420E+000	3.57760E+000	10	...........
	68	0.916667	9.98779E-001	5.99214E-003	0.00000E+000	5.98482E-003	3.59960E-001	-1.07655E+000	3.57760E+000	10	...........
STARTTIMEOFFSET	QUANT	222.7183	Start Time Offset (s)

File: CHARGE_#116.DTA
EXPLAIN
TAG	PWR800_CHARGE
TITLE	LABEL	PWR Cyclic Charge Discharge (Cell) - Charge Step	Test &Identifier
DATE	LABEL	22-6-2017	Date
TIME	LABEL	15:40:12	Time
NOTES	NOTES	3	&Notes...
	supercap test cell
	0.6mg
	6M KOH
PSTAT	PSTAT	IFC5000-01520	Potentiostat
CAPACITY	QUANT	1.00000E-003	Capacity (A-hr)
CELLTYPE	SELECTOR	1	&Cell Type
WORKINGCONNECTION	SELECTOR	0	&Working Lead
MAXCHARGETIME	VARIABLEANDUNITS	1.00000E+002	s	1.00000E+002	second(s)	Max &Charge Time
CHARGECURRENT	QUANT	6.00000E-003	&Charge Current (A)
VOLTAGEFINISH	TWOPARAM	F	1.00000E-003	3.60000E+003	&Voltage Finish	 I (A) < 	Max Time(s)
SAMPLETIME	QUANT	1.00000E-002	Sa&mple Period (s)
CHARGESTOPAT1	MULTIPARAM	4	1.00000E+000	Charge Stop At &1	Voltage > Limit	V
CHARGESTOPAT2	MULTIPARAM	0	0.00000E+000	Charge Stop At &2	None	N/A
AESBHCSELECTOR	TOGGLE	F	Save Both Half Cells
IRCOMP	TOGGLE	F	IR &Measure
EOC	QUANT	0	Open Circuit (V)
SEQUENCER	TOGGLE	TRUE	Run as Sequence
PSTATMODEL	IQUANT	53	Pstat Model
PSTATSECTION	LABEL	IFC5000-01520	Pstat Section
PSTATSERIALNO	LABEL	01520	Pstat Serial Number
CTRLMODE	IQUANT	0	Control Mode
ELECTROMETER	IQUANT	1	RE=0 or CS=1
IESTAB	IQUANT	0	I/E Stability
CASPEED	IQUANT	4	Control Amp Speed
CONVENTION	IQUANT	1	Current Convention
ICHRANGE	IQUANT	2	Ich Range
ICHRANGEMODE	TOGGLE	T	Ich Auto Range
ICHOFFSETENABLE	TOGGLE	F	Ich Offset Enable
ICHOFFSET	QUANT	0	Ich Offset (V)
ICHFILTER	IQUANT	1	Ich Filter
VCHRANGE	IQUANT	2	Vch Range
VCHRANGEMODE	TOGGLE	T	Vch Auto Range
VCHOFFSETENABLE	TOGGLE	F	Vch Offset Enable
VCHOFFSET	QUANT	0	Vch Offset (V)
VCHFILTER	IQUANT	1	Vch Filter
IERANGELOWERLIMIT	IQUANT	9	I/E Range Lower Limit
IERANGEMODE	TOGGLE	F	I/E AutoRange
IERANGE	IQUANT	10	I/E Range
ACHSELECT	IQUANT	1	Ach Select
ACHRANGE	IQUANT	2	Ach Range
ACHOFFSETENABLE	TOGGLE	F	Ach Offset Enable
ACHOFFSET	QUANT	0	Ach Offset (V)
ACHFILTER	IQUANT	1	Ach Filter
CABLEID	IQUANT	14	Cable ID
DCCALDATE	LABEL	20-10-2016	DC Calibration Date
ACCALDATE	LABEL	12/3/2015	AC Calibration Date
FRAMEWORKVERSION	QUANT	7.01	Framework Version
INSTRUMENTVERSION	LABEL	4.00	Instrument Version
CURVE	TABLE	69
	Pt	T	Vf	Im	Vu	Pwr	Sig	Ach	Temp	IERange	Over
	#	s	V	A	V	W	V	V	deg C	#	bits
	0	0.013333	5.92102E-001	5.99575E-003	0.00000E+000	3.55010E-003	3.59960E-001	-1.06477E+000	3.57830E+000	10	...........
	1	0.026667	6.00394E-001	5.99447E-003	0.00000E+000	3.59904E-003	3.59960E-001	-1.07425E+000	3.57830E+000	10	...........
	2	0.04	6.07980E-001	5.99446E-003	0.00000E+000	3.64451E-003	3.59960E-001	-1.07104E+000	3.57830E+000	10	...........
	3	0.053333	6.15241E-001	5.99236E-003	0.00000E+000	3.68674E-003	3.59960E-001	-1.06466E+000	3.57830E+000	10	...........
	4	0.066667	6.22196E-001	5.99175E-003	0.00000E+000	3.72804E-003	3.59960E-001	-1.07422E+000	3.57830E+000	10	...........
	5	0.08	6.28918E-001	5.99766E-003	0.00000E+000	3.77204E-003	3.59960E-001	-1.07104E+000	3.57830E+000	10	...........
	6	0.093333	6.35519E-001	5.99295E-003	0.00000E+000	3.80863E-003	3.59960E-001	-1.06446E+000	3.57830E+000	10	...........
	7	0.106667	6.42015E-001	5.99326E-003	0.00000E+000	3.84776E-003	3.59960E-001	-1.07374E+000	3.57830E+000	10	...........
	8	0.12	6.48432E-001	5.99472E-003	0.00000E+000	3.88717E-003	3.59960E-001	-1.07101E+000	3.57830E+000	10	...........
	9	0.133333	6.54754E-001	5.99386E-003	0.00000E+000	3.92451E-003	3.59960E-001	-1.06447E+000	3.57830E+000	10	...........
	10	0.146667	6.61001E-001	5.99466E-003	0.00000E+000	3.96248E-003	3.59960E-001	-1.07353E+000	3.57830E+000	10	...........
	11	0.16	6.67246E-001	5.99599E-003	0.00000E+000	4.00080E-003	3.59960E-001	-1.07109E+000	3.57830E+000	10	...........
	12	0.173333	6.73471E-001	5.99489E-003	0.00000E+000	4.03738E-003	3.59960E-001	-1.06456E+000	3.57830E+000	10	...........
	13	0.186667	6.79622E-001	5.99592E-003	0.00000E+000	4.07496E-003	3.59960E-001	-1.07356E+000	3.57830E+000	10	...........
	14	0.2	6.85697E-001	5.98894E-003	0.00000E+000	4.10660E-003	3.59960E-001	-1.07147E+000	3.57830E+000	10	...........
	15	0.213333	6.91798E-001	5.99415E-003	0.00000E+000	4.14674E-003	3.59960E-001	-1.06449E+000	3.57830E+000	10	...........
	16	0.226667	6.97827E-001	5.99340E-003	0.00000E+000	4.18235E-003	3.59960E-001	-1.07319E+000	3.57830E+000	10	...........
	17	0.24	7.03875E-001	5.99806E-003	0.00000E+000	4.22188E-003	3.59960E-001	-1.07158E+000	3.57830E+000	10	...........
	18	0.253333	7.09892E-001	5.99669E-003	0.00000E+000	4.25700E-003	3.59960E-001	-1.06448E+000	3.57830E+000	10	...........
	19	0.266667	7.15968E-001	5.99464E-003	0.00000E+000	4.29197E-003	3.59960E-001	-1.07316E+000	3.57830E+000	10	...........
	20	0.28	7.22002E-001	5.99484E-003	0.00000E+000	4.32829E-003	3.59960E-001	-1.07089E+000	3.57830E+000	10	...........
	21	0.293333	7.27981E-001	5.99719E-003	0.00000E+000	4.36584E-003	3.59960E-001	-1.06354E+000	3.57830E+000	10	...........
	22	0.306667	7.33986E-001	5.99783E-003	0.00000E+000	4.40232E-003	3.59960E-001	-1.07245E+000	3.57830E+000	10	...........
	23	0.32	7.39959E-001	5.99688E-003	0.00000E+000	4.43745E-003	3.59960E-001	-1.07130E+000	3.57830E+000	10	...........
	24	0.333333	7.45919E-001	5.99211E-003	0.00000E+000	4.46963E-003	3.59960E-001	-1.06364E+000	3.57830E+000	10	...........
	25	0.346667	7.51871E-001	5.99704E-003	0.00000E+000	4.50900E-003	3.59960E-001	-1.07220E+000	3.57830E+000	10	...........
	26	0.36	7.57878E-001	5.99198E-003	0.00000E+000	4.54119E-003	3.59960E-001	-1.07108E+000	3.57830E+000	10	...........
	27	0.373333	7.63799E-001	5.99601E-003	0.00000E+000	4.57975E-003	3.59960E-001	-1.06359E+000	3.57830E+000	10	...........
	28	0.386667	7.69759E-001	5.99527E-003	0.00000E+000	4.61491E-003	3.59960E-001	-1.07226E+000	3.57830E+000	10	...........
	29	0.4	7.75697E-001	5.99487E-003	0.00000E+000	4.65020E-003	3.59960E-001	-1.07144E+000	3.57830E+000	10	...........
	30	0.413333	7.81706E-001	5.99115E-003	0.00000E+000	4.68332E-003	3.59960E-001	-1.06332E+000	3.57830E+000	10	...........
	31	0.426667	7.87620E-001	5.99530E-003	0.00000E+000	4.72202E-003	3.59960E-001	-1.07167E+000	3.57830E+000	10	...........
	32	0.44	7.93538E-001	5.99624E-003	0.00000E+000	4.75824E-003	3.59960E-001	-1.07108E+000	3.57830E+000	10	...........
	33	0.453333	7.99474E-001	5.99111E-003	0.00000E+000	4.78973E-003	3.59960E-001	-1.06341E+000	3.57830E+000	10	...........
	34	0.466667	8.05423E-001	5.99686E-003	0.00000E+000	4.83001E-003	3.59960E-001	-1.07187E+000	3.57830E+000	10	...........
	35	0.48	8.11308E-001	5.99823E-003	0.00000E+000	4.86642E-003	3.59960E-001	-1.07148E+000	3.57830E+000	10	...........
	36	0.493333	8.17235E-001	5.99182E-003	0.00000E+000	4.89673E-003	3.59960E-001	-1.06348E+000	3.57830E+000	10	...........
	37	0.506667	8.23141E-001	5.99457E-003	0.00000E+000	4.93438E-003	3.59960E-001	-1.07160E+000	3.57830E+000	10	...........
	38	0.52	8.29048E-001	5.99507E-003	0.00000E+000	4.97021E-003	3.59960E-001	-1.07173E+000	3.57830E+000	10	...........
	39	0.533333	8.34957E-001	5.99341E-003	0.00000E+000	5.00423E-003	3.59960E-001	-1.06374E+000	3.57830E+000	10	...........
	40	0.546667	8.40838E-001	5.99109E-003	0.00000E+000	5.03753E-003	3.59960E-001	-1.07139E+000	3.57830E+000	10	...........
	41	0.56	8.46799E-001	5.99808E-003	0.00000E+000	5.07917E-003	3.59960E-001	-1.07183E+000	3.57830E+000	10	...........
	42	0.573333	8.52646E-001	5.99549E-003	0.00000E+000	5.11203E-003	3.59960E-001	-1.06356E+000	3.57830E+000	10	...........
	43	0.586667	8.58520E-001	5.98981E-003	0.00000E+000	5.14237E-003	3.59960E-001	-1.07109E+000	3.57830E+000	10	...........
	44	0.6	8.64413E-001	5.99284E-003	0.00000E+000	5.18029E-003	3.59960E-001	-1.07171E+000	3.57830E+000	10	...........
	45	0.613333	8.70276E-001	5.99555E-003	0.00000E+000	5.21779E-003	3.59960E-001	-1.06331E+000	3.57830E+000	10	...........
	46	0.626667	8.76144E-001	5.99459E-003	0.00000E+000	5.25213E-003	3.59960E-001	-1.07058E+000	3.57830E+000	10	...........
	47	0.64	8.81908E-001	5.99613E-003	0.00000E+000	5.28803E-003	3.59960E-001	-1.07154E+000	3.57830E+000	10	...........
	48	0.653333	8.87736E-001	5.99239E-003	0.00000E+000	5.31967E-003	3.59960E-001	-1.06308E+000	3.57830E+000	10	...........
	49	0.666667	8.93540E-001	5.99146E-003	0.00000E+000	5.35360E-003	3.59960E-001	-1.07070E+000	3.57830E+000	10	...........
	50	0.68	8.99320E-001	5.98996E-003	0.00000E+000	5.38690E-003	3.59960E-001	-1.07177E+000	3.57830E+000	10	...........
	51	0.693333	9.05070E-001	5.98968E-003	0.00000E+000	5.42108E-003	3.59960E-001	-1.06309E+000	3.57830E+000	10	...........
	52	0.706667	9.10847E-001	5.99311E-003	0.00000E+000	5.45881E-003	3.59960E-001	-1.07025E+000	3.57830E+000	10	...........
	53	0.72	9.16602E-001	5.99525E-003	0.00000E+000	5.49526E-003	3.59960E-001	-1.07199E+000	3.57830E+000	10	...........
	54	0.733333	9.22369E-001	5.99715E-003	0.00000E+000	5.53159E-003	3.59960E-001	-1.06329E+000	3.57830E+000	10	...........
	55	0.746667	9.28112E-001	5.99412E-003	0.00000E+000	5.56321E-003	3.59960E-001	-1.07010E+000	3.57830E+000	10	...........
	56	0.76	9.33751E-001	5.99522E-003	0.00000E+000	5.59804E-003	3.59960E-001	-1.07173E+000	3.57830E+000	10	...........
	57	0.773333	9.39367E-001	5.99458E-003	0.00000E+000	5.63111E-003	3.59960E-001	-1.06297E+000	3.57830E+000	10	...........
	58	0.786667	9.45032E-001	5.99392E-003	0.00000E+000	5.66444E-003	3.59960E-001	-1.06996E+000	3.57833E+000	10	...........
	59	0.8	9.50695E-001	5.99334E-003	0.00000E+000	5.69784E-003	3.59960E-001	-1.07221E+000	3.57840E+000	10	...........
	60	0.813333	9.56254E-001	5.99721E-003	0.00000E+000	5.73486E-003	3.59960E-001	-1.06331E+000	3.57840E+000	10	...........
	61	0.826667	9.61769E-001	5.99413E-003	0.00000E+000	5.76496E-003	3.59960E-001	-1.06978E+000	3.57840E+000	10	...........
	62	0.84	9.67286E-001	5.99950E-003	0.00000E+000	5.80323E-003	3.59960E-001	-1.07232E+000	3.57840E+000	10	...........
	63	0.853333	9.72794E-001	5.98744E-003	0.00000E+000	5.82454E-003	3.59960E-001	-1.06337E+000	3.57840E+000	10	...........
	64	0.866667	9.78246E-001	5.99391E-003	0.00000E+000	5.86351E-003	3.59960E-001	-1.06998E+000	3.57840E+000	10	...........
	65	0.88	9.83694E-001	5.99823E-003	0.00000E+000	5.90043E-003	3.59960E-001	-1.07267E+000	3.57840E+000	10	...........
	66	0.893333	9.89077E-001	5.99268E-003	0.00000E+000	5.92722E-003	3.59960E-001	-1.06343E+000	3.57840E+000	10	...........
	67	0.906667	9.94411E-001	5.99582E-003	0.00000E+000	5.96230E-003	3.59960E-001	-1.06956E+000	3.57840E+000	10	...........
	68	0.915	9.98792E-001	5.99785E-003	0.00000E+000	5.99060E-003	3.59960E-001	-1.06905E+000	3.57840E+000	10	...........
STARTTIMEOFFSET	QUANT	224.54	Start Time Offset (s)