Folder: Tesis/Data/CV_CRGO300517_1/PWRCCD_CRGO300517_1/CHARGE_DISCHARGE (part 126)

File: CHARGE_#253.DTA
EXPLAIN
TAG	PWR800_CHARGE
TITLE	LABEL	PWR Cyclic Charge Discharge (Cell) - Charge Step	Test &Identifier
DATE	LABEL	22-6-2017	Date
TIME	LABEL	15:46:00	Time
NOTES	NOTES	3	&Notes...
	supercap test cell
	0.6mg
	6M KOH
PSTAT	PSTAT	IFC5000-01520	Potentiostat
CAPACITY	QUANT	1.00000E-003	Capacity (A-hr)
CELLTYPE	SELECTOR	1	&Cell Type
WORKINGCONNECTION	SELECTOR	0	&Working Lead
MAXCHARGETIME	VARIABLEANDUNITS	1.00000E+002	s	1.00000E+002	second(s)	Max &Charge Time
CHARGECURRENT	QUANT	6.00000E-003	&Charge Current (A)
VOLTAGEFINISH	TWOPARAM	F	1.00000E-003	3.60000E+003	&Voltage Finish	 I (A) < 	Max Time(s)
SAMPLETIME	QUANT	1.00000E-002	Sa&mple Period (s)
CHARGESTOPAT1	MULTIPARAM	4	1.00000E+000	Charge Stop At &1	Voltage > Limit	V
CHARGESTOPAT2	MULTIPARAM	0	0.00000E+000	Charge Stop At &2	None	N/A
AESBHCSELECTOR	TOGGLE	F	Save Both Half Cells
IRCOMP	TOGGLE	F	IR &Measure
EOC	QUANT	0	Open Circuit (V)
SEQUENCER	TOGGLE	TRUE	Run as Sequence
PSTATMODEL	IQUANT	53	Pstat Model
PSTATSECTION	LABEL	IFC5000-01520	Pstat Section
PSTATSERIALNO	LABEL	01520	Pstat Serial Number
CTRLMODE	IQUANT	0	Control Mode
ELECTROMETER	IQUANT	1	RE=0 or CS=1
IESTAB	IQUANT	0	I/E Stability
CASPEED	IQUANT	4	Control Amp Speed
CONVENTION	IQUANT	1	Current Convention
ICHRANGE	IQUANT	2	Ich Range
ICHRANGEMODE	TOGGLE	T	Ich Auto Range
ICHOFFSETENABLE	TOGGLE	F	Ich Offset Enable
ICHOFFSET	QUANT	0	Ich Offset (V)
ICHFILTER	IQUANT	1	Ich Filter
VCHRANGE	IQUANT	2	Vch Range
VCHRANGEMODE	TOGGLE	T	Vch Auto Range
VCHOFFSETENABLE	TOGGLE	F	Vch Offset Enable
VCHOFFSET	QUANT	0	Vch Offset (V)
VCHFILTER	IQUANT	1	Vch Filter
IERANGELOWERLIMIT	IQUANT	9	I/E Range Lower Limit
IERANGEMODE	TOGGLE	F	I/E AutoRange
IERANGE	IQUANT	10	I/E Range
ACHSELECT	IQUANT	1	Ach Select
ACHRANGE	IQUANT	2	Ach Range
ACHOFFSETENABLE	TOGGLE	F	Ach Offset Enable
ACHOFFSET	QUANT	0	Ach Offset (V)
ACHFILTER	IQUANT	1	Ach Filter
CABLEID	IQUANT	14	Cable ID
DCCALDATE	LABEL	20-10-2016	DC Calibration Date
ACCALDATE	LABEL	12/3/2015	AC Calibration Date
FRAMEWORKVERSION	QUANT	7.01	Framework Version
INSTRUMENTVERSION	LABEL	4.00	Instrument Version
CURVE	TABLE	64
	Pt	T	Vf	Im	Vu	Pwr	Sig	Ach	Temp	IERange	Over
	#	s	V	A	V	W	V	V	deg C	#	bits
	0	0.013333	6.11742E-001	5.99055E-003	0.00000E+000	3.66467E-003	3.59960E-001	-1.09854E+000	3.57820E+000	10	...........
	1	0.026667	6.20357E-001	5.99625E-003	0.00000E+000	3.71982E-003	3.59960E-001	-1.10708E+000	3.57820E+000	10	...........
	2	0.04	6.28192E-001	5.98964E-003	0.00000E+000	3.76264E-003	3.59960E-001	-1.09766E+000	3.57820E+000	10	...........
	3	0.053333	6.35621E-001	5.98981E-003	0.00000E+000	3.80724E-003	3.59960E-001	-1.09840E+000	3.57820E+000	10	...........
	4	0.066667	6.42853E-001	5.99452E-003	0.00000E+000	3.85360E-003	3.59960E-001	-1.10660E+000	3.57820E+000	10	...........
	5	0.08	6.49835E-001	5.99468E-003	0.00000E+000	3.89555E-003	3.59960E-001	-1.09685E+000	3.57820E+000	10	...........
	6	0.093333	6.56707E-001	5.99812E-003	0.00000E+000	3.93901E-003	3.59960E-001	-1.09809E+000	3.57820E+000	10	...........
	7	0.106667	6.63440E-001	5.99224E-003	0.00000E+000	3.97549E-003	3.59960E-001	-1.10658E+000	3.57820E+000	10	...........
	8	0.12	6.70122E-001	5.99917E-003	0.00000E+000	4.02018E-003	3.59960E-001	-1.09695E+000	3.57820E+000	10	...........
	9	0.133333	6.76676E-001	5.99001E-003	0.00000E+000	4.05329E-003	3.59960E-001	-1.09792E+000	3.57820E+000	10	...........
	10	0.146667	6.83198E-001	5.99640E-003	0.00000E+000	4.09673E-003	3.59960E-001	-1.10629E+000	3.57820E+000	10	...........
	11	0.16	6.89658E-001	5.99153E-003	0.00000E+000	4.13211E-003	3.59960E-001	-1.09695E+000	3.57820E+000	10	...........
	12	0.173333	6.96100E-001	5.99449E-003	0.00000E+000	4.17277E-003	3.59960E-001	-1.09787E+000	3.57820E+000	10	...........
	13	0.186667	7.02511E-001	5.99704E-003	0.00000E+000	4.21299E-003	3.59960E-001	-1.10646E+000	3.57820E+000	10	...........
	14	0.2	7.08883E-001	5.99435E-003	0.00000E+000	4.24929E-003	3.59960E-001	-1.09678E+000	3.57820E+000	10	...........
	15	0.213333	7.15176E-001	5.99541E-003	0.00000E+000	4.28777E-003	3.59960E-001	-1.09750E+000	3.57820E+000	10	...........
	16	0.226667	7.21541E-001	5.99270E-003	0.00000E+000	4.32398E-003	3.59960E-001	-1.10615E+000	3.57820E+000	10	...........
	17	0.24	7.27800E-001	5.99249E-003	0.00000E+000	4.36133E-003	3.59960E-001	-1.09685E+000	3.57820E+000	10	...........
	18	0.253333	7.34083E-001	5.99588E-003	0.00000E+000	4.40147E-003	3.59960E-001	-1.09747E+000	3.57820E+000	10	...........
	19	0.266667	7.40310E-001	5.99476E-003	0.00000E+000	4.43798E-003	3.59960E-001	-1.10631E+000	3.57820E+000	10	...........
	20	0.28	7.46597E-001	5.99211E-003	0.00000E+000	4.47369E-003	3.59960E-001	-1.09687E+000	3.57820E+000	10	...........
	21	0.293333	7.52861E-001	6.00131E-003	0.00000E+000	4.51816E-003	3.59960E-001	-1.09750E+000	3.57820E+000	10	...........
	22	0.306667	7.59094E-001	5.99774E-003	0.00000E+000	4.55285E-003	3.59960E-001	-1.10648E+000	3.57820E+000	10	...........
	23	0.32	7.65301E-001	5.99434E-003	0.00000E+000	4.58748E-003	3.59960E-001	-1.09703E+000	3.57820E+000	10	...........
	24	0.333333	7.71507E-001	5.99636E-003	0.00000E+000	4.62623E-003	3.59960E-001	-1.09749E+000	3.57820E+000	10	...........
	25	0.346667	7.77691E-001	5.99175E-003	0.00000E+000	4.65972E-003	3.59960E-001	-1.10626E+000	3.57820E+000	10	...........
	26	0.36	7.83890E-001	5.99277E-003	0.00000E+000	4.69767E-003	3.59960E-001	-1.09689E+000	3.57820E+000	10	...........
	27	0.373333	7.90083E-001	5.99074E-003	0.00000E+000	4.73318E-003	3.59960E-001	-1.09740E+000	3.57820E+000	10	...........
	28	0.386667	7.96279E-001	5.99250E-003	0.00000E+000	4.77170E-003	3.59960E-001	-1.10598E+000	3.57820E+000	10	...........
	29	0.4	8.02416E-001	5.99570E-003	0.00000E+000	4.81105E-003	3.59960E-001	-1.09651E+000	3.57820E+000	10	...........
	30	0.413333	8.08516E-001	5.99309E-003	0.00000E+000	4.84551E-003	3.59960E-001	-1.09669E+000	3.57820E+000	10	...........
	31	0.426667	8.14637E-001	5.99523E-003	0.00000E+000	4.88394E-003	3.59960E-001	-1.10606E+000	3.57820E+000	10	...........
	32	0.44	8.20786E-001	5.99272E-003	0.00000E+000	4.91874E-003	3.59960E-001	-1.09652E+000	3.57820E+000	10	...........
	33	0.453333	8.26927E-001	5.99416E-003	0.00000E+000	4.95673E-003	3.59960E-001	-1.09678E+000	3.57820E+000	10	...........
	34	0.466667	8.33010E-001	5.99098E-003	0.00000E+000	4.99054E-003	3.59960E-001	-1.10587E+000	3.57820E+000	10	...........
	35	0.48	8.39101E-001	5.99528E-003	0.00000E+000	5.03065E-003	3.59960E-001	-1.09642E+000	3.57820E+000	10	...........
	36	0.493333	8.45205E-001	5.99297E-003	0.00000E+000	5.06529E-003	3.59960E-001	-1.09688E+000	3.57820E+000	10	...........
	37	0.506667	8.51359E-001	5.99617E-003	0.00000E+000	5.10489E-003	3.59960E-001	-1.10593E+000	3.57820E+000	10	...........
	38	0.52	8.57399E-001	5.99224E-003	0.00000E+000	5.13774E-003	3.59960E-001	-1.09640E+000	3.57820E+000	10	...........
	39	0.533333	8.63471E-001	5.99238E-003	0.00000E+000	5.17425E-003	3.59960E-001	-1.09651E+000	3.57820E+000	10	...........
	40	0.546667	8.69548E-001	5.99753E-003	0.00000E+000	5.21514E-003	3.59960E-001	-1.10582E+000	3.57820E+000	10	...........
	41	0.56	8.75577E-001	5.99108E-003	0.00000E+000	5.24565E-003	3.59960E-001	-1.09655E+000	3.57820E+000	10	...........
	42	0.573333	8.81561E-001	5.99317E-003	0.00000E+000	5.28334E-003	3.59960E-001	-1.09644E+000	3.57820E+000	10	...........
	43	0.586667	8.87586E-001	5.99917E-003	0.00000E+000	5.32478E-003	3.59960E-001	-1.10579E+000	3.57820E+000	10	...........
	44	0.6	8.93508E-001	5.99286E-003	0.00000E+000	5.35467E-003	3.59960E-001	-1.09662E+000	3.57820E+000	10	...........
	45	0.613333	8.99451E-001	5.99470E-003	0.00000E+000	5.39194E-003	3.59960E-001	-1.09638E+000	3.57820E+000	10	...........
	46	0.626667	9.05383E-001	5.99239E-003	0.00000E+000	5.42541E-003	3.59960E-001	-1.10608E+000	3.57820E+000	10	...........
	47	0.64	9.11314E-001	5.99427E-003	0.00000E+000	5.46266E-003	3.59960E-001	-1.09689E+000	3.57820E+000	10	...........
	48	0.653333	9.17211E-001	5.99910E-003	0.00000E+000	5.50244E-003	3.59960E-001	-1.09666E+000	3.57820E+000	10	...........
	49	0.666667	9.23108E-001	5.99095E-003	0.00000E+000	5.53030E-003	3.59960E-001	-1.10587E+000	3.57820E+000	10	...........
	50	0.68	9.28974E-001	5.99563E-003	0.00000E+000	5.56978E-003	3.59960E-001	-1.09671E+000	3.57820E+000	10	...........
	51	0.693333	9.34776E-001	5.99510E-003	0.00000E+000	5.60407E-003	3.59960E-001	-1.09637E+000	3.57820E+000	10	...........
	52	0.706667	9.40508E-001	5.99714E-003	0.00000E+000	5.64036E-003	3.59960E-001	-1.10566E+000	3.57810E+000	10	...........
	53	0.72	9.46294E-001	5.99804E-003	0.00000E+000	5.67591E-003	3.59960E-001	-1.09626E+000	3.57810E+000	10	...........
	54	0.733333	9.52009E-001	5.99315E-003	0.00000E+000	5.70554E-003	3.59960E-001	-1.09571E+000	3.57810E+000	10	...........
	55	0.746667	9.57691E-001	5.99435E-003	0.00000E+000	5.74074E-003	3.59960E-001	-1.10538E+000	3.57810E+000	10	...........
	56	0.76	9.63342E-001	5.99621E-003	0.00000E+000	5.77640E-003	3.59960E-001	-1.09632E+000	3.57810E+000	10	...........
	57	0.773333	9.68951E-001	5.99587E-003	0.00000E+000	5.80970E-003	3.59960E-001	-1.09603E+000	3.57810E+000	10	...........
	58	0.786667	9.74562E-001	5.99329E-003	0.00000E+000	5.84083E-003	3.59960E-001	-1.10540E+000	3.57810E+000	10	...........
	59	0.8	9.80104E-001	5.99435E-003	0.00000E+000	5.87509E-003	3.59960E-001	-1.09628E+000	3.57810E+000	10	...........
	60	0.813333	9.85569E-001	5.99044E-003	0.00000E+000	5.90399E-003	3.59960E-001	-1.09572E+000	3.57810E+000	10	...........
	61	0.826667	9.91007E-001	5.99181E-003	0.00000E+000	5.93793E-003	3.59960E-001	-1.10552E+000	3.57810E+000	10	...........
	62	0.84	9.96449E-001	5.99739E-003	0.00000E+000	5.97609E-003	3.59960E-001	-1.09654E+000	3.57810E+000	10	...........
	63	0.843333	9.99769E-001	5.98499E-003	0.00000E+000	5.98361E-003	3.59960E-001	-1.10772E+000	3.57810E+000	10	...........
STARTTIMEOFFSET	QUANT	463.0034	Start Time Offset (s)

File: CHARGE_#254.DTA
EXPLAIN
TAG	PWR800_CHARGE
TITLE	LABEL	PWR Cyclic Charge Discharge (Cell) - Charge Step	Test &Identifier
DATE	LABEL	22-6-2017	Date
TIME	LABEL	15:46:03	Time
NOTES	NOTES	3	&Notes...
	supercap test cell
	0.6mg
	6M KOH
PSTAT	PSTAT	IFC5000-01520	Potentiostat
CAPACITY	QUANT	1.00000E-003	Capacity (A-hr)
CELLTYPE	SELECTOR	1	&Cell Type
WORKINGCONNECTION	SELECTOR	0	&Working Lead
MAXCHARGETIME	VARIABLEANDUNITS	1.00000E+002	s	1.00000E+002	second(s)	Max &Charge Time
CHARGECURRENT	QUANT	6.00000E-003	&Charge Current (A)
VOLTAGEFINISH	TWOPARAM	F	1.00000E-003	3.60000E+003	&Voltage Finish	 I (A) < 	Max Time(s)
SAMPLETIME	QUANT	1.00000E-002	Sa&mple Period (s)
CHARGESTOPAT1	MULTIPARAM	4	1.00000E+000	Charge Stop At &1	Voltage > Limit	V
CHARGESTOPAT2	MULTIPARAM	0	0.00000E+000	Charge Stop At &2	None	N/A
AESBHCSELECTOR	TOGGLE	F	Save Both Half Cells
IRCOMP	TOGGLE	F	IR &Measure
EOC	QUANT	0	Open Circuit (V)
SEQUENCER	TOGGLE	TRUE	Run as Sequence
PSTATMODEL	IQUANT	53	Pstat Model
PSTATSECTION	LABEL	IFC5000-01520	Pstat Section
PSTATSERIALNO	LABEL	01520	Pstat Serial Number
CTRLMODE	IQUANT	0	Control Mode
ELECTROMETER	IQUANT	1	RE=0 or CS=1
IESTAB	IQUANT	0	I/E Stability
CASPEED	IQUANT	4	Control Amp Speed
CONVENTION	IQUANT	1	Current Convention
ICHRANGE	IQUANT	2	Ich Range
ICHRANGEMODE	TOGGLE	T	Ich Auto Range
ICHOFFSETENABLE	TOGGLE	F	Ich Offset Enable
ICHOFFSET	QUANT	0	Ich Offset (V)
ICHFILTER	IQUANT	1	Ich Filter
VCHRANGE	IQUANT	2	Vch Range
VCHRANGEMODE	TOGGLE	T	Vch Auto Range
VCHOFFSETENABLE	TOGGLE	F	Vch Offset Enable
VCHOFFSET	QUANT	0	Vch Offset (V)
VCHFILTER	IQUANT	1	Vch Filter
IERANGELOWERLIMIT	IQUANT	9	I/E Range Lower Limit
IERANGEMODE	TOGGLE	F	I/E AutoRange
IERANGE	IQUANT	10	I/E Range
ACHSELECT	IQUANT	1	Ach Select
ACHRANGE	IQUANT	2	Ach Range
ACHOFFSETENABLE	TOGGLE	F	Ach Offset Enable
ACHOFFSET	QUANT	0	Ach Offset (V)
ACHFILTER	IQUANT	1	Ach Filter
CABLEID	IQUANT	14	Cable ID
DCCALDATE	LABEL	20-10-2016	DC Calibration Date
ACCALDATE	LABEL	12/3/2015	AC Calibration Date
FRAMEWORKVERSION	QUANT	7.01	Framework Version
INSTRUMENTVERSION	LABEL	4.00	Instrument Version
CURVE	TABLE	64
	Pt	T	Vf	Im	Vu	Pwr	Sig	Ach	Temp	IERange	Over
	#	s	V	A	V	W	V	V	deg C	#	bits
	0	0.013333	6.11854E-001	5.99027E-003	0.00000E+000	3.66517E-003	3.59960E-001	-1.09686E+000	3.57670E+000	10	...........
	1	0.026667	6.20431E-001	5.98955E-003	0.00000E+000	3.71610E-003	3.59960E-001	-1.10650E+000	3.57670E+000	10	...........
	2	0.04	6.28263E-001	5.99167E-003	0.00000E+000	3.76435E-003	3.59960E-001	-1.10017E+000	3.57670E+000	10	...........
	3	0.053333	6.35708E-001	5.99570E-003	0.00000E+000	3.81151E-003	3.59960E-001	-1.09684E+000	3.57670E+000	10	...........
	4	0.066667	6.42889E-001	5.99878E-003	0.00000E+000	3.85655E-003	3.59960E-001	-1.10632E+000	3.57670E+000	10	...........
	5	0.08	6.49856E-001	5.99344E-003	0.00000E+000	3.89487E-003	3.59960E-001	-1.10016E+000	3.57670E+000	10	...........
	6	0.093333	6.56653E-001	5.99550E-003	0.00000E+000	3.93697E-003	3.59960E-001	-1.09669E+000	3.57670E+000	10	...........
	7	0.106667	6.63361E-001	5.99973E-003	0.00000E+000	3.97998E-003	3.59960E-001	-1.10605E+000	3.57670E+000	10	...........
	8	0.12	6.70067E-001	5.99499E-003	0.00000E+000	4.01705E-003	3.59960E-001	-1.09997E+000	3.57670E+000	10	...........
	9	0.133333	6.76599E-001	5.99341E-003	0.00000E+000	4.05513E-003	3.59960E-001	-1.09643E+000	3.57670E+000	10	...........
	10	0.146667	6.83106E-001	5.99854E-003	0.00000E+000	4.09763E-003	3.59960E-001	-1.10580E+000	3.57670E+000	10	...........
	11	0.16	6.89573E-001	5.99469E-003	0.00000E+000	4.13378E-003	3.59960E-001	-1.09964E+000	3.57670E+000	10	...........
	12	0.173333	6.96028E-001	5.99597E-003	0.00000E+000	4.17336E-003	3.59960E-001	-1.09615E+000	3.57670E+000	10	...........
	13	0.186667	7.02390E-001	5.99322E-003	0.00000E+000	4.20958E-003	3.59960E-001	-1.10553E+000	3.57670E+000	10	...........
	14	0.2	7.08696E-001	5.99579E-003	0.00000E+000	4.24920E-003	3.59960E-001	-1.09969E+000	3.57670E+000	10	...........
	15	0.213333	7.15060E-001	5.99445E-003	0.00000E+000	4.28639E-003	3.59960E-001	-1.09608E+000	3.57670E+000	10	...........
	16	0.226667	7.21400E-001	5.99433E-003	0.00000E+000	4.32431E-003	3.59960E-001	-1.10547E+000	3.57688E+000	10	...........
	17	0.24	7.27687E-001	5.99631E-003	0.00000E+000	4.36343E-003	3.59960E-001	-1.09968E+000	3.57690E+000	10	...........
	18	0.253333	7.33949E-001	5.99532E-003	0.00000E+000	4.40026E-003	3.59960E-001	-1.09591E+000	3.57690E+000	10	...........
	19	0.266667	7.40165E-001	5.99393E-003	0.00000E+000	4.43650E-003	3.59960E-001	-1.10517E+000	3.57690E+000	10	...........
	20	0.28	7.46433E-001	5.99207E-003	0.00000E+000	4.47268E-003	3.59960E-001	-1.09972E+000	3.57690E+000	10	...........
	21	0.293333	7.52669E-001	5.99722E-003	0.00000E+000	4.51392E-003	3.59960E-001	-1.09611E+000	3.57690E+000	10	...........
	22	0.306667	7.58885E-001	5.99577E-003	0.00000E+000	4.55010E-003	3.59960E-001	-1.10531E+000	3.57690E+000	10	...........
	23	0.32	7.65126E-001	5.99325E-003	0.00000E+000	4.58559E-003	3.59960E-001	-1.09950E+000	3.57690E+000	10	...........
	24	0.333333	7.71344E-001	5.99257E-003	0.00000E+000	4.62234E-003	3.59960E-001	-1.09577E+000	3.57690E+000	10	...........
	25	0.346667	7.77554E-001	5.99258E-003	0.00000E+000	4.65956E-003	3.59960E-001	-1.10522E+000	3.57690E+000	10	...........
	26	0.36	7.83730E-001	5.99387E-003	0.00000E+000	4.69758E-003	3.59960E-001	-1.09977E+000	3.57690E+000	10	...........
	27	0.373333	7.89901E-001	5.99284E-003	0.00000E+000	4.73375E-003	3.59960E-001	-1.09579E+000	3.57690E+000	10	...........
	28	0.386667	7.96134E-001	5.99856E-003	0.00000E+000	4.77565E-003	3.59960E-001	-1.10500E+000	3.57690E+000	10	...........
	29	0.4	8.02267E-001	5.99794E-003	0.00000E+000	4.81195E-003	3.59960E-001	-1.09959E+000	3.57690E+000	10	...........
	30	0.413333	8.08414E-001	5.99884E-003	0.00000E+000	4.84955E-003	3.59960E-001	-1.09577E+000	3.57690E+000	10	...........
	31	0.426667	8.14540E-001	5.99392E-003	0.00000E+000	4.88229E-003	3.59960E-001	-1.10513E+000	3.57690E+000	10	...........
	32	0.44	8.20704E-001	5.99181E-003	0.00000E+000	4.91750E-003	3.59960E-001	-1.09981E+000	3.57690E+000	10	...........
	33	0.453333	8.26797E-001	5.99367E-003	0.00000E+000	4.95555E-003	3.59960E-001	-1.09565E+000	3.57690E+000	10	...........
	34	0.466667	8.32906E-001	5.98945E-003	0.00000E+000	4.98865E-003	3.59960E-001	-1.10468E+000	3.57690E+000	10	...........
	35	0.48	8.38983E-001	5.99237E-003	0.00000E+000	5.02750E-003	3.59960E-001	-1.09972E+000	3.57690E+000	10	...........
	36	0.493333	8.45082E-001	5.99647E-003	0.00000E+000	5.06751E-003	3.59960E-001	-1.09547E+000	3.57690E+000	10	...........
	37	0.506667	8.51171E-001	5.99371E-003	0.00000E+000	5.10167E-003	3.59960E-001	-1.10455E+000	3.57690E+000	10	...........
	38	0.52	8.57210E-001	5.99220E-003	0.00000E+000	5.13657E-003	3.59960E-001	-1.09954E+000	3.57690E+000	10	...........
	39	0.533333	8.63268E-001	5.99345E-003	0.00000E+000	5.17395E-003	3.59960E-001	-1.09544E+000	3.57690E+000	10	...........
	40	0.546667	8.69308E-001	5.99144E-003	0.00000E+000	5.20841E-003	3.59960E-001	-1.10450E+000	3.57690E+000	10	...........
	41	0.56	8.75384E-001	5.99355E-003	0.00000E+000	5.24666E-003	3.59960E-001	-1.09960E+000	3.57690E+000	10	...........
	42	0.573333	8.81380E-001	5.99562E-003	0.00000E+000	5.28442E-003	3.59960E-001	-1.09555E+000	3.57690E+000	10	...........
	43	0.586667	8.87369E-001	5.99453E-003	0.00000E+000	5.31936E-003	3.59960E-001	-1.10441E+000	3.57690E+000	10	...........
	44	0.6	8.93328E-001	5.99165E-003	0.00000E+000	5.35251E-003	3.59960E-001	-1.09960E+000	3.57690E+000	10	...........
	45	0.613333	8.99264E-001	5.99455E-003	0.00000E+000	5.39069E-003	3.59960E-001	-1.09552E+000	3.57690E+000	10	...........
	46	0.626667	9.05208E-001	5.99108E-003	0.00000E+000	5.42317E-003	3.59960E-001	-1.10441E+000	3.57690E+000	10	...........
	47	0.64	9.11139E-001	5.99243E-003	0.00000E+000	5.45993E-003	3.59960E-001	-1.09979E+000	3.57690E+000	10	...........
	48	0.653333	9.17027E-001	5.99303E-003	0.00000E+000	5.49577E-003	3.59960E-001	-1.09534E+000	3.57690E+000	10	...........
	49	0.666667	9.22956E-001	5.99212E-003	0.00000E+000	5.53046E-003	3.59960E-001	-1.10420E+000	3.57690E+000	10	...........
	50	0.68	9.28773E-001	5.99585E-003	0.00000E+000	5.56878E-003	3.59960E-001	-1.09992E+000	3.57690E+000	10	...........
	51	0.693333	9.34537E-001	5.99310E-003	0.00000E+000	5.60078E-003	3.59960E-001	-1.09554E+000	3.57690E+000	10	...........
	52	0.706667	9.40329E-001	5.99467E-003	0.00000E+000	5.63696E-003	3.59960E-001	-1.10425E+000	3.57690E+000	10	...........
	53	0.72	9.46063E-001	5.99307E-003	0.00000E+000	5.66982E-003	3.59960E-001	-1.09991E+000	3.57690E+000	10	...........
	54	0.733333	9.51802E-001	5.99709E-003	0.00000E+000	5.70804E-003	3.59960E-001	-1.09555E+000	3.57690E+000	10	...........
	55	0.746667	9.57500E-001	5.99787E-003	0.00000E+000	5.74296E-003	3.59960E-001	-1.10442E+000	3.57690E+000	10	...........
	56	0.76	9.63148E-001	5.99285E-003	0.00000E+000	5.77200E-003	3.59960E-001	-1.10019E+000	3.57690E+000	10	...........
	57	0.773333	9.68735E-001	5.99147E-003	0.00000E+000	5.80414E-003	3.59960E-001	-1.09533E+000	3.57690E+000	10	...........
	58	0.786667	9.74373E-001	5.99490E-003	0.00000E+000	5.84127E-003	3.59960E-001	-1.10382E+000	3.57690E+000	10	...........
	59	0.8	9.79892E-001	5.99007E-003	0.00000E+000	5.86962E-003	3.59960E-001	-1.09948E+000	3.57690E+000	10	...........
	60	0.813333	9.85359E-001	5.98985E-003	0.00000E+000	5.90215E-003	3.59960E-001	-1.09518E+000	3.57690E+000	10	...........
	61	0.826667	9.90826E-001	5.99342E-003	0.00000E+000	5.93843E-003	3.59960E-001	-1.10369E+000	3.57690E+000	10	...........
	62	0.84	9.96241E-001	5.99151E-003	0.00000E+000	5.96899E-003	3.59960E-001	-1.09970E+000	3.57690E+000	10	...........
	63	0.845	9.99957E-001	5.99524E-003	0.00000E+000	5.99498E-003	3.59960E-001	-1.10284E+000	3.57690E+000	10	...........
STARTTIMEOFFSET	QUANT	464.6818	Start Time Offset (s)