Folder: Tesis/Data/CV_CRGO300517_1/PWRCCD_CRGO300517_1/CHARGE_DISCHARGE (part 12)

File: CHARGE_#23.DTA
EXPLAIN
TAG	PWR800_CHARGE
TITLE	LABEL	PWR Cyclic Charge Discharge (Cell) - Charge Step	Test &Identifier
DATE	LABEL	22-6-2017	Date
TIME	LABEL	15:36:00	Time
NOTES	NOTES	3	&Notes...
	supercap test cell
	0.6mg
	6M KOH
PSTAT	PSTAT	IFC5000-01520	Potentiostat
CAPACITY	QUANT	1.00000E-003	Capacity (A-hr)
CELLTYPE	SELECTOR	1	&Cell Type
WORKINGCONNECTION	SELECTOR	0	&Working Lead
MAXCHARGETIME	VARIABLEANDUNITS	1.00000E+002	s	1.00000E+002	second(s)	Max &Charge Time
CHARGECURRENT	QUANT	6.00000E-003	&Charge Current (A)
VOLTAGEFINISH	TWOPARAM	F	1.00000E-003	3.60000E+003	&Voltage Finish	 I (A) < 	Max Time(s)
SAMPLETIME	QUANT	1.00000E-002	Sa&mple Period (s)
CHARGESTOPAT1	MULTIPARAM	4	1.00000E+000	Charge Stop At &1	Voltage > Limit	V
CHARGESTOPAT2	MULTIPARAM	0	0.00000E+000	Charge Stop At &2	None	N/A
AESBHCSELECTOR	TOGGLE	F	Save Both Half Cells
IRCOMP	TOGGLE	F	IR &Measure
EOC	QUANT	0	Open Circuit (V)
SEQUENCER	TOGGLE	TRUE	Run as Sequence
PSTATMODEL	IQUANT	53	Pstat Model
PSTATSECTION	LABEL	IFC5000-01520	Pstat Section
PSTATSERIALNO	LABEL	01520	Pstat Serial Number
CTRLMODE	IQUANT	0	Control Mode
ELECTROMETER	IQUANT	1	RE=0 or CS=1
IESTAB	IQUANT	0	I/E Stability
CASPEED	IQUANT	4	Control Amp Speed
CONVENTION	IQUANT	1	Current Convention
ICHRANGE	IQUANT	2	Ich Range
ICHRANGEMODE	TOGGLE	T	Ich Auto Range
ICHOFFSETENABLE	TOGGLE	F	Ich Offset Enable
ICHOFFSET	QUANT	0	Ich Offset (V)
ICHFILTER	IQUANT	1	Ich Filter
VCHRANGE	IQUANT	2	Vch Range
VCHRANGEMODE	TOGGLE	T	Vch Auto Range
VCHOFFSETENABLE	TOGGLE	F	Vch Offset Enable
VCHOFFSET	QUANT	0	Vch Offset (V)
VCHFILTER	IQUANT	1	Vch Filter
IERANGELOWERLIMIT	IQUANT	9	I/E Range Lower Limit
IERANGEMODE	TOGGLE	F	I/E AutoRange
IERANGE	IQUANT	10	I/E Range
ACHSELECT	IQUANT	1	Ach Select
ACHRANGE	IQUANT	2	Ach Range
ACHOFFSETENABLE	TOGGLE	F	Ach Offset Enable
ACHOFFSET	QUANT	0	Ach Offset (V)
ACHFILTER	IQUANT	1	Ach Filter
CABLEID	IQUANT	14	Cable ID
DCCALDATE	LABEL	20-10-2016	DC Calibration Date
ACCALDATE	LABEL	12/3/2015	AC Calibration Date
FRAMEWORKVERSION	QUANT	7.01	Framework Version
INSTRUMENTVERSION	LABEL	4.00	Instrument Version
CURVE	TABLE	78
	Pt	T	Vf	Im	Vu	Pwr	Sig	Ach	Temp	IERange	Over
	#	s	V	A	V	W	V	V	deg C	#	bits
	0	0.013333	5.62125E-001	5.99144E-003	0.00000E+000	3.36794E-003	3.59960E-001	-1.03122E+000	3.57750E+000	10	...........
	1	0.026667	5.70129E-001	5.99597E-003	0.00000E+000	3.41848E-003	3.59960E-001	-1.01956E+000	3.57750E+000	10	...........
	2	0.04	5.77426E-001	5.99454E-003	0.00000E+000	3.46141E-003	3.59960E-001	-1.02090E+000	3.57750E+000	10	...........
	3	0.053333	5.84349E-001	5.99074E-003	0.00000E+000	3.50068E-003	3.59960E-001	-1.03108E+000	3.57750E+000	10	...........
	4	0.066667	5.90999E-001	5.99156E-003	0.00000E+000	3.54101E-003	3.59960E-001	-1.01945E+000	3.57750E+000	10	...........
	5	0.08	5.97468E-001	5.99456E-003	0.00000E+000	3.58156E-003	3.59960E-001	-1.02100E+000	3.57750E+000	10	...........
	6	0.093333	6.03764E-001	5.99491E-003	0.00000E+000	3.61951E-003	3.59960E-001	-1.03062E+000	3.57750E+000	10	...........
	7	0.106667	6.09972E-001	5.99748E-003	0.00000E+000	3.65830E-003	3.59960E-001	-1.01879E+000	3.57750E+000	10	...........
	8	0.12	6.16131E-001	5.99070E-003	0.00000E+000	3.69106E-003	3.59960E-001	-1.02069E+000	3.57750E+000	10	...........
	9	0.133333	6.22177E-001	5.99114E-003	0.00000E+000	3.72755E-003	3.59960E-001	-1.03062E+000	3.57750E+000	10	...........
	10	0.146667	6.28130E-001	5.99480E-003	0.00000E+000	3.76552E-003	3.59960E-001	-1.01885E+000	3.57750E+000	10	...........
	11	0.16	6.34037E-001	5.99414E-003	0.00000E+000	3.80051E-003	3.59960E-001	-1.02051E+000	3.57750E+000	10	...........
	12	0.173333	6.39921E-001	5.99429E-003	0.00000E+000	3.83587E-003	3.59960E-001	-1.03041E+000	3.57750E+000	10	...........
	13	0.186667	6.45814E-001	5.99212E-003	0.00000E+000	3.86980E-003	3.59960E-001	-1.01886E+000	3.57750E+000	10	...........
	14	0.2	6.51654E-001	5.99795E-003	0.00000E+000	3.90859E-003	3.59960E-001	-1.02078E+000	3.57750E+000	10	...........
	15	0.213333	6.57397E-001	5.99444E-003	0.00000E+000	3.94073E-003	3.59960E-001	-1.03044E+000	3.57750E+000	10	...........
	16	0.226667	6.63119E-001	5.99400E-003	0.00000E+000	3.97474E-003	3.59960E-001	-1.01857E+000	3.57750E+000	10	...........
	17	0.24	6.68855E-001	5.99246E-003	0.00000E+000	4.00809E-003	3.59960E-001	-1.02054E+000	3.57750E+000	10	...........
	18	0.253333	6.74576E-001	5.99770E-003	0.00000E+000	4.04591E-003	3.59960E-001	-1.03032E+000	3.57750E+000	10	...........
	19	0.266667	6.80246E-001	5.99543E-003	0.00000E+000	4.07837E-003	3.59960E-001	-1.01873E+000	3.57750E+000	10	...........
	20	0.28	6.85893E-001	5.99192E-003	0.00000E+000	4.10982E-003	3.59960E-001	-1.02066E+000	3.57750E+000	10	...........
	21	0.293333	6.91599E-001	6.00080E-003	0.00000E+000	4.15015E-003	3.59960E-001	-1.03012E+000	3.57750E+000	10	...........
	22	0.306667	6.97247E-001	5.99428E-003	0.00000E+000	4.17949E-003	3.59960E-001	-1.01858E+000	3.57750E+000	10	...........
	23	0.32	7.02884E-001	5.99415E-003	0.00000E+000	4.21319E-003	3.59960E-001	-1.02086E+000	3.57750E+000	10	...........
	24	0.333333	7.08487E-001	5.99282E-003	0.00000E+000	4.24584E-003	3.59960E-001	-1.03036E+000	3.57750E+000	10	...........
	25	0.346667	7.14096E-001	5.99473E-003	0.00000E+000	4.28081E-003	3.59960E-001	-1.01877E+000	3.57750E+000	10	...........
	26	0.36	7.19738E-001	5.99064E-003	0.00000E+000	4.31169E-003	3.59960E-001	-1.02080E+000	3.57750E+000	10	...........
	27	0.373333	7.25382E-001	5.99725E-003	0.00000E+000	4.35030E-003	3.59960E-001	-1.03014E+000	3.57750E+000	10	...........
	28	0.386667	7.30950E-001	5.99155E-003	0.00000E+000	4.37952E-003	3.59960E-001	-1.01870E+000	3.57750E+000	10	...........
	29	0.4	7.36575E-001	5.99292E-003	0.00000E+000	4.41423E-003	3.59960E-001	-1.02083E+000	3.57750E+000	10	...........
	30	0.413333	7.42181E-001	5.99731E-003	0.00000E+000	4.45109E-003	3.59960E-001	-1.02996E+000	3.57750E+000	10	...........
	31	0.426667	7.47787E-001	5.99310E-003	0.00000E+000	4.48156E-003	3.59960E-001	-1.01811E+000	3.57750E+000	10	...........
	32	0.44	7.53364E-001	5.99361E-003	0.00000E+000	4.51537E-003	3.59960E-001	-1.02016E+000	3.57750E+000	10	...........
	33	0.453333	7.58951E-001	5.99552E-003	0.00000E+000	4.55031E-003	3.59960E-001	-1.02943E+000	3.57750E+000	10	...........
	34	0.466667	7.64547E-001	5.99321E-003	0.00000E+000	4.58209E-003	3.59960E-001	-1.01816E+000	3.57750E+000	10	...........
	35	0.48	7.70157E-001	5.99649E-003	0.00000E+000	4.61824E-003	3.59960E-001	-1.02030E+000	3.57750E+000	10	...........
	36	0.493333	7.75719E-001	5.99263E-003	0.00000E+000	4.64860E-003	3.59960E-001	-1.02946E+000	3.57750E+000	10	...........
	37	0.506667	7.81299E-001	5.99626E-003	0.00000E+000	4.68488E-003	3.59960E-001	-1.01797E+000	3.57750E+000	10	...........
	38	0.52	7.86880E-001	5.99445E-003	0.00000E+000	4.71691E-003	3.59960E-001	-1.02047E+000	3.57750E+000	10	...........
	39	0.533333	7.92522E-001	5.99660E-003	0.00000E+000	4.75244E-003	3.59960E-001	-1.02970E+000	3.57750E+000	10	...........
	40	0.546667	7.98119E-001	5.99246E-003	0.00000E+000	4.78270E-003	3.59960E-001	-1.01803E+000	3.57750E+000	10	...........
	41	0.56	8.03701E-001	5.99208E-003	0.00000E+000	4.81584E-003	3.59960E-001	-1.02038E+000	3.57750E+000	10	...........
	42	0.573333	8.09318E-001	5.99633E-003	0.00000E+000	4.85294E-003	3.59960E-001	-1.02958E+000	3.57750E+000	10	...........
[...]
	48	0.653333	8.42916E-001	5.99420E-003	0.00000E+000	5.05261E-003	3.59960E-001	-1.02942E+000	3.57765E+000	10	...........
	49	0.666667	8.48514E-001	5.99191E-003	0.00000E+000	5.08422E-003	3.59960E-001	-1.01806E+000	3.57870E+000	10	...........
	50	0.68	8.54096E-001	5.99161E-003	0.00000E+000	5.11741E-003	3.59960E-001	-1.02085E+000	3.57870E+000	10	...........
	51	0.693333	8.59673E-001	5.99572E-003	0.00000E+000	5.15436E-003	3.59960E-001	-1.02955E+000	3.57870E+000	10	...........
	52	0.706667	8.65220E-001	5.99346E-003	0.00000E+000	5.18566E-003	3.59960E-001	-1.01786E+000	3.57870E+000	10	...........
	53	0.72	8.70847E-001	5.99615E-003	0.00000E+000	5.22173E-003	3.59960E-001	-1.02075E+000	3.57870E+000	10	...........
	54	0.733333	8.76447E-001	5.99454E-003	0.00000E+000	5.25390E-003	3.59960E-001	-1.02924E+000	3.57870E+000	10	...........
	55	0.746667	8.82028E-001	5.99410E-003	0.00000E+000	5.28697E-003	3.59960E-001	-1.01784E+000	3.57870E+000	10	...........
	56	0.76	8.87585E-001	5.99220E-003	0.00000E+000	5.31858E-003	3.59960E-001	-1.02032E+000	3.57870E+000	10	...........
	57	0.773333	8.93171E-001	5.99410E-003	0.00000E+000	5.35376E-003	3.59960E-001	-1.02871E+000	3.57870E+000	10	...........
	58	0.786667	8.98758E-001	5.99074E-003	0.00000E+000	5.38422E-003	3.59960E-001	-1.01751E+000	3.57870E+000	10	...........
	59	0.8	9.04251E-001	5.99403E-003	0.00000E+000	5.42011E-003	3.59960E-001	-1.02053E+000	3.57870E+000	10	...........
	60	0.813333	9.09816E-001	5.99266E-003	0.00000E+000	5.45222E-003	3.59960E-001	-1.02899E+000	3.57870E+000	10	...........
	61	0.826667	9.15370E-001	5.99468E-003	0.00000E+000	5.48735E-003	3.59960E-001	-1.01753E+000	3.57870E+000	10	...........
	62	0.84	9.20922E-001	5.99665E-003	0.00000E+000	5.52245E-003	3.59960E-001	-1.02043E+000	3.57870E+000	10	...........
	63	0.853333	9.26409E-001	5.99322E-003	0.00000E+000	5.55217E-003	3.59960E-001	-1.02878E+000	3.57870E+000	10	...........
	64	0.866667	9.31900E-001	5.99447E-003	0.00000E+000	5.58625E-003	3.59960E-001	-1.01748E+000	3.57870E+000	10	...........
	65	0.88	9.37357E-001	5.99756E-003	0.00000E+000	5.62185E-003	3.59960E-001	-1.02040E+000	3.57870E+000	10	...........
	66	0.893333	9.42832E-001	5.99223E-003	0.00000E+000	5.64966E-003	3.59960E-001	-1.02856E+000	3.57870E+000	10	...........
	67	0.906667	9.48277E-001	5.99464E-003	0.00000E+000	5.68458E-003	3.59960E-001	-1.01721E+000	3.57870E+000	10	...........
	68	0.92	9.53674E-001	5.99426E-003	0.00000E+000	5.71657E-003	3.59960E-001	-1.02041E+000	3.57870E+000	10	...........
	69	0.933333	9.59095E-001	5.99273E-003	0.00000E+000	5.74760E-003	3.59960E-001	-1.02872E+000	3.57870E+000	10	...........
	70	0.946667	9.64486E-001	5.99147E-003	0.00000E+000	5.77868E-003	3.59960E-001	-1.01757E+000	3.57870E+000	10	...........
	71	0.96	9.69867E-001	5.99281E-003	0.00000E+000	5.81223E-003	3.59960E-001	-1.02065E+000	3.57870E+000	10	...........
	72	0.97333	9.75215E-001	5.99204E-003	0.00000E+000	5.84353E-003	3.59960E-001	-1.02855E+000	3.57870E+000	10	...........
	73	0.98667	9.80482E-001	5.99433E-003	0.00000E+000	5.87734E-003	3.59960E-001	-1.01745E+000	3.57870E+000	10	...........
	74	1	9.85776E-001	5.99668E-003	0.00000E+000	5.91139E-003	3.59960E-001	-1.02092E+000	3.57870E+000	10	...........
	75	1.01333	9.91039E-001	5.99448E-003	0.00000E+000	5.94077E-003	3.59960E-001	-1.02880E+000	3.57870E+000	10	...........
	76	1.02667	9.96249E-001	5.99377E-003	0.00000E+000	5.97129E-003	3.59960E-001	-1.01742E+000	3.57870E+000	10	...........
	77	1.03167	9.99807E-001	5.98840E-003	0.00000E+000	5.98724E-003	3.59960E-001	-1.03247E+000	3.57870E+000	10	...........
STARTTIMEOFFSET	QUANT	46.67	Start Time Offset (s)

File: CHARGE_#24.DTA
EXPLAIN
TAG	PWR800_CHARGE
TITLE	LABEL	PWR Cyclic Charge Discharge (Cell) - Charge Step	Test &Identifier
DATE	LABEL	22-6-2017	Date
TIME	LABEL	15:36:03	Time
NOTES	NOTES	3	&Notes...
	supercap test cell
	0.6mg
	6M KOH
PSTAT	PSTAT	IFC5000-01520	Potentiostat
CAPACITY	QUANT	1.00000E-003	Capacity (A-hr)
CELLTYPE	SELECTOR	1	&Cell Type
WORKINGCONNECTION	SELECTOR	0	&Working Lead
MAXCHARGETIME	VARIABLEANDUNITS	1.00000E+002	s	1.00000E+002	second(s)	Max &Charge Time
CHARGECURRENT	QUANT	6.00000E-003	&Charge Current (A)
VOLTAGEFINISH	TWOPARAM	F	1.00000E-003	3.60000E+003	&Voltage Finish	 I (A) < 	Max Time(s)
SAMPLETIME	QUANT	1.00000E-002	Sa&mple Period (s)
CHARGESTOPAT1	MULTIPARAM	4	1.00000E+000	Charge Stop At &1	Voltage > Limit	V
CHARGESTOPAT2	MULTIPARAM	0	0.00000E+000	Charge Stop At &2	None	N/A
AESBHCSELECTOR	TOGGLE	F	Save Both Half Cells
IRCOMP	TOGGLE	F	IR &Measure
EOC	QUANT	0	Open Circuit (V)
SEQUENCER	TOGGLE	TRUE	Run as Sequence
PSTATMODEL	IQUANT	53	Pstat Model
PSTATSECTION	LABEL	IFC5000-01520	Pstat Section
PSTATSERIALNO	LABEL	01520	Pstat Serial Number
CTRLMODE	IQUANT	0	Control Mode
ELECTROMETER	IQUANT	1	RE=0 or CS=1
IESTAB	IQUANT	0	I/E Stability
CASPEED	IQUANT	4	Control Amp Speed
CONVENTION	IQUANT	1	Current Convention
ICHRANGE	IQUANT	2	Ich Range
ICHRANGEMODE	TOGGLE	T	Ich Auto Range
ICHOFFSETENABLE	TOGGLE	F	Ich Offset Enable
ICHOFFSET	QUANT	0	Ich Offset (V)
ICHFILTER	IQUANT	1	Ich Filter
VCHRANGE	IQUANT	2	Vch Range
VCHRANGEMODE	TOGGLE	T	Vch Auto Range
VCHOFFSETENABLE	TOGGLE	F	Vch Offset Enable
VCHOFFSET	QUANT	0	Vch Offset (V)
VCHFILTER	IQUANT	1	Vch Filter
IERANGELOWERLIMIT	IQUANT	9	I/E Range Lower Limit
IERANGEMODE	TOGGLE	F	I/E AutoRange
IERANGE	IQUANT	10	I/E Range
ACHSELECT	IQUANT	1	Ach Select
ACHRANGE	IQUANT	2	Ach Range
ACHOFFSETENABLE	TOGGLE	F	Ach Offset Enable
ACHOFFSET	QUANT	0	Ach Offset (V)
ACHFILTER	IQUANT	1	Ach Filter
CABLEID	IQUANT	14	Cable ID
DCCALDATE	LABEL	20-10-2016	DC Calibration Date
ACCALDATE	LABEL	12/3/2015	AC Calibration Date
FRAMEWORKVERSION	QUANT	7.01	Framework Version
INSTRUMENTVERSION	LABEL	4.00	Instrument Version
CURVE	TABLE	78
	Pt	T	Vf	Im	Vu	Pwr	Sig	Ach	Temp	IERange	Over
	#	s	V	A	V	W	V	V	deg C	#	bits
	0	0.013333	5.62695E-001	5.99732E-003	0.00000E+000	3.37466E-003	3.59960E-001	-1.02629E+000	3.57740E+000	10	...........
	1	0.026667	5.70709E-001	5.99348E-003	0.00000E+000	3.42053E-003	3.59960E-001	-1.02723E+000	3.57740E+000	10	...........
	2	0.04	5.78007E-001	5.99721E-003	0.00000E+000	3.46643E-003	3.59960E-001	-1.01841E+000	3.57740E+000	10	...........
	3	0.053333	5.84936E-001	5.99318E-003	0.00000E+000	3.50562E-003	3.59960E-001	-1.02614E+000	3.57740E+000	10	...........
	4	0.066667	5.91644E-001	5.99780E-003	0.00000E+000	3.54856E-003	3.59960E-001	-1.02682E+000	3.57740E+000	10	...........
	5	0.08	5.98083E-001	5.99241E-003	0.00000E+000	3.58396E-003	3.59960E-001	-1.01859E+000	3.57740E+000	10	...........
	6	0.093333	6.04396E-001	5.99588E-003	0.00000E+000	3.62389E-003	3.59960E-001	-1.02652E+000	3.57740E+000	10	...........
	7	0.106667	6.10606E-001	5.99568E-003	0.00000E+000	3.66100E-003	3.59960E-001	-1.02682E+000	3.57740E+000	10	...........
	8	0.12	6.16785E-001	5.99265E-003	0.00000E+000	3.69618E-003	3.59960E-001	-1.01845E+000	3.57740E+000	10	...........
	9	0.133333	6.22833E-001	5.99280E-003	0.00000E+000	3.73252E-003	3.59960E-001	-1.02582E+000	3.57740E+000	10	...........
	10	0.146667	6.28788E-001	5.99520E-003	0.00000E+000	3.76971E-003	3.59960E-001	-1.02658E+000	3.57740E+000	10	...........
	11	0.16	6.34686E-001	5.99506E-003	0.00000E+000	3.80499E-003	3.59960E-001	-1.01814E+000	3.57740E+000	10	...........
	12	0.173333	6.40566E-001	5.99207E-003	0.00000E+000	3.83832E-003	3.59960E-001	-1.02596E+000	3.57740E+000	10	...........
	13	0.186667	6.46435E-001	5.99500E-003	0.00000E+000	3.87538E-003	3.59960E-001	-1.02633E+000	3.57740E+000	10	...........
	14	0.2	6.52237E-001	5.99411E-003	0.00000E+000	3.90958E-003	3.59960E-001	-1.01806E+000	3.57740E+000	10	...........
	15	0.213333	6.58038E-001	5.99263E-003	0.00000E+000	3.94338E-003	3.59960E-001	-1.02613E+000	3.57740E+000	10	...........
	16	0.226667	6.63773E-001	5.99278E-003	0.00000E+000	3.97785E-003	3.59960E-001	-1.02643E+000	3.57740E+000	10	...........
	17	0.24	6.69509E-001	5.99201E-003	0.00000E+000	4.01171E-003	3.59960E-001	-1.01805E+000	3.57740E+000	10	...........
	18	0.253333	6.75229E-001	5.99478E-003	0.00000E+000	4.04785E-003	3.59960E-001	-1.02582E+000	3.57740E+000	10	...........
	19	0.266667	6.80930E-001	5.99560E-003	0.00000E+000	4.08258E-003	3.59960E-001	-1.02611E+000	3.57740E+000	10	...........
	20	0.28	6.86593E-001	5.99652E-003	0.00000E+000	4.11717E-003	3.59960E-001	-1.01796E+000	3.57740E+000	10	...........
	21	0.293333	6.92269E-001	5.99404E-003	0.00000E+000	4.14949E-003	3.59960E-001	-1.02606E+000	3.57740E+000	10	...........
	22	0.306667	6.97883E-001	5.99220E-003	0.00000E+000	4.18185E-003	3.59960E-001	-1.02615E+000	3.57740E+000	10	...........
	23	0.32	7.03542E-001	5.99374E-003	0.00000E+000	4.21685E-003	3.59960E-001	-1.01765E+000	3.57740E+000	10	...........
	24	0.333333	7.09204E-001	5.99154E-003	0.00000E+000	4.24922E-003	3.59960E-001	-1.02583E+000	3.57740E+000	10	...........
	25	0.346667	7.14834E-001	5.99743E-003	0.00000E+000	4.28717E-003	3.59960E-001	-1.02607E+000	3.57740E+000	10	...........
	26	0.36	7.20451E-001	5.99537E-003	0.00000E+000	4.31937E-003	3.59960E-001	-1.01826E+000	3.57740E+000	10	...........
	27	0.373333	7.26070E-001	5.99140E-003	0.00000E+000	4.35018E-003	3.59960E-001	-1.02620E+000	3.57740E+000	10	...........
	28	0.386667	7.31710E-001	5.99343E-003	0.00000E+000	4.38545E-003	3.59960E-001	-1.02599E+000	3.57740E+000	10	...........
	29	0.4	7.37273E-001	5.99185E-003	0.00000E+000	4.41763E-003	3.59960E-001	-1.01796E+000	3.57740E+000	10	...........
	30	0.413333	7.42845E-001	5.99489E-003	0.00000E+000	4.45327E-003	3.59960E-001	-1.02621E+000	3.57740E+000	10	...........
	31	0.426667	7.48486E-001	5.99257E-003	0.00000E+000	4.48536E-003	3.59960E-001	-1.02613E+000	3.57740E+000	10	...........
	32	0.44	7.54122E-001	5.99361E-003	0.00000E+000	4.51992E-003	3.59960E-001	-1.01801E+000	3.57740E+000	10	...........
	33	0.453333	7.59693E-001	5.99345E-003	0.00000E+000	4.55318E-003	3.59960E-001	-1.02576E+000	3.57740E+000	10	...........
	34	0.466667	7.65305E-001	5.99253E-003	0.00000E+000	4.58611E-003	3.59960E-001	-1.02551E+000	3.57740E+000	10	...........
	35	0.48	7.70962E-001	5.99650E-003	0.00000E+000	4.62308E-003	3.59960E-001	-1.01770E+000	3.57740E+000	10	...........
	36	0.493333	7.76564E-001	5.99514E-003	0.00000E+000	4.65561E-003	3.59960E-001	-1.02610E+000	3.57740E+000	10	...........
	37	0.506667	7.82166E-001	5.99295E-003	0.00000E+000	4.68748E-003	3.59960E-001	-1.02537E+000	3.57740E+000	10	...........
	38	0.52	7.87752E-001	5.99649E-003	0.00000E+000	4.72375E-003	3.59960E-001	-1.01738E+000	3.57740E+000	10	...........
	39	0.533333	7.93368E-001	5.99733E-003	0.00000E+000	4.75808E-003	3.59960E-001	-1.02589E+000	3.57740E+000	10	...........
	40	0.546667	7.98942E-001	5.99301E-003	0.00000E+000	4.78807E-003	3.59960E-001	-1.02555E+000	3.57740E+000	10	...........
	41	0.56	8.04534E-001	5.99490E-003	0.00000E+000	4.82310E-003	3.59960E-001	-1.01775E+000	3.57740E+000	10	...........
	42	0.573333	8.10125E-001	5.99289E-003	0.00000E+000	4.85499E-003	3.59960E-001	-1.02612E+000	3.57740E+000	10	...........
[...]
	48	0.653333	8.43740E-001	5.99609E-003	0.00000E+000	5.05914E-003	3.59960E-001	-1.02588E+000	3.57740E+000	10	...........
	49	0.666667	8.49326E-001	5.99677E-003	0.00000E+000	5.09322E-003	3.59960E-001	-1.02513E+000	3.57740E+000	10	...........
	50	0.68	8.54899E-001	5.99221E-003	0.00000E+000	5.12273E-003	3.59960E-001	-1.01759E+000	3.57740E+000	10	...........
	51	0.693333	8.60537E-001	5.99508E-003	0.00000E+000	5.15899E-003	3.59960E-001	-1.02636E+000	3.57740E+000	10	...........
	52	0.706667	8.66103E-001	5.99447E-003	0.00000E+000	5.19183E-003	3.59960E-001	-1.02527E+000	3.57740E+000	10	...........
	53	0.72	8.71737E-001	5.99422E-003	0.00000E+000	5.22538E-003	3.59960E-001	-1.01759E+000	3.57740E+000	10	...........
	54	0.733333	8.77292E-001	5.99236E-003	0.00000E+000	5.25705E-003	3.59960E-001	-1.02616E+000	3.57740E+000	10	...........
	55	0.746667	8.82858E-001	5.99286E-003	0.00000E+000	5.29085E-003	3.59960E-001	-1.02528E+000	3.57740E+000	10	...........
	56	0.76	8.88410E-001	5.99234E-003	0.00000E+000	5.32366E-003	3.59960E-001	-1.01779E+000	3.57740E+000	10	...........
	57	0.773333	8.93978E-001	5.99151E-003	0.00000E+000	5.35628E-003	3.59960E-001	-1.02612E+000	3.57740E+000	10	...........
	58	0.786667	8.99567E-001	5.99275E-003	0.00000E+000	5.39088E-003	3.59960E-001	-1.02467E+000	3.57740E+000	10	...........
	59	0.8	9.05133E-001	5.99569E-003	0.00000E+000	5.42689E-003	3.59960E-001	-1.01725E+000	3.57740E+000	10	...........
	60	0.813333	9.10652E-001	5.99543E-003	0.00000E+000	5.45975E-003	3.59960E-001	-1.02607E+000	3.57815E+000	10	...........
	61	0.826667	9.16174E-001	5.99828E-003	0.00000E+000	5.49547E-003	3.59960E-001	-1.02489E+000	3.57860E+000	10	...........
	62	0.84	9.21741E-001	5.99379E-003	0.00000E+000	5.52473E-003	3.59960E-001	-1.01721E+000	3.57860E+000	10	...........
	63	0.853333	9.27253E-001	5.99127E-003	0.00000E+000	5.55542E-003	3.59960E-001	-1.02585E+000	3.57860E+000	10	...........
	64	0.866667	9.32687E-001	5.99723E-003	0.00000E+000	5.59354E-003	3.59960E-001	-1.02446E+000	3.57860E+000	10	...........
	65	0.88	9.38155E-001	5.99610E-003	0.00000E+000	5.62527E-003	3.59960E-001	-1.01722E+000	3.57860E+000	10	...........
	66	0.893333	9.43571E-001	5.99143E-003	0.00000E+000	5.65334E-003	3.59960E-001	-1.02610E+000	3.57860E+000	10	...........
	67	0.906667	9.49076E-001	5.99551E-003	0.00000E+000	5.69020E-003	3.59960E-001	-1.02458E+000	3.57860E+000	10	...........
	68	0.92	9.54473E-001	5.99415E-003	0.00000E+000	5.72125E-003	3.59960E-001	-1.01686E+000	3.57860E+000	10	...........
	69	0.933333	9.59875E-001	5.99302E-003	0.00000E+000	5.75255E-003	3.59960E-001	-1.02579E+000	3.57860E+000	10	...........
	70	0.946667	9.65264E-001	5.99433E-003	0.00000E+000	5.78611E-003	3.59960E-001	-1.02450E+000	3.57860E+000	10	...........
	71	0.96	9.70638E-001	5.99421E-003	0.00000E+000	5.81821E-003	3.59960E-001	-1.01737E+000	3.57860E+000	10	...........
	72	0.97333	9.76010E-001	5.99125E-003	0.00000E+000	5.84752E-003	3.59960E-001	-1.02618E+000	3.57860E+000	10	...........
	73	0.98667	9.81311E-001	5.99216E-003	0.00000E+000	5.88018E-003	3.59960E-001	-1.02438E+000	3.57860E+000	10	...........
	74	1	9.86620E-001	5.99216E-003	0.00000E+000	5.91199E-003	3.59960E-001	-1.01727E+000	3.57860E+000	10	...........
	75	1.01333	9.91881E-001	5.99151E-003	0.00000E+000	5.94286E-003	3.59960E-001	-1.02631E+000	3.57860E+000	10	...........
	76	1.02667	9.97073E-001	5.99205E-003	0.00000E+000	5.97451E-003	3.59960E-001	-1.02470E+000	3.57860E+000	10	...........
	77	1.02833	1.00005E+000	5.99730E-003	0.00000E+000	5.99762E-003	3.59960E-001	-1.03148E+000	3.57860E+000	10	...........
STARTTIMEOFFSET	QUANT	48.71667	Start Time Offset (s)