Folder: Tesis/Data/CV_CRGO300517_1/PWRCCD_CRGO300517_1/CHARGE_DISCHARGE (part 46)

File: CHARGE_#91.DTA
EXPLAIN
TAG	PWR800_CHARGE
TITLE	LABEL	PWR Cyclic Charge Discharge (Cell) - Charge Step	Test &Identifier
DATE	LABEL	22-6-2017	Date
TIME	LABEL	15:39:06	Time
NOTES	NOTES	3	&Notes...
	supercap test cell
	0.6mg
	6M KOH
PSTAT	PSTAT	IFC5000-01520	Potentiostat
CAPACITY	QUANT	1.00000E-003	Capacity (A-hr)
CELLTYPE	SELECTOR	1	&Cell Type
WORKINGCONNECTION	SELECTOR	0	&Working Lead
MAXCHARGETIME	VARIABLEANDUNITS	1.00000E+002	s	1.00000E+002	second(s)	Max &Charge Time
CHARGECURRENT	QUANT	6.00000E-003	&Charge Current (A)
VOLTAGEFINISH	TWOPARAM	F	1.00000E-003	3.60000E+003	&Voltage Finish	 I (A) < 	Max Time(s)
SAMPLETIME	QUANT	1.00000E-002	Sa&mple Period (s)
CHARGESTOPAT1	MULTIPARAM	4	1.00000E+000	Charge Stop At &1	Voltage > Limit	V
CHARGESTOPAT2	MULTIPARAM	0	0.00000E+000	Charge Stop At &2	None	N/A
AESBHCSELECTOR	TOGGLE	F	Save Both Half Cells
IRCOMP	TOGGLE	F	IR &Measure
EOC	QUANT	0	Open Circuit (V)
SEQUENCER	TOGGLE	TRUE	Run as Sequence
PSTATMODEL	IQUANT	53	Pstat Model
PSTATSECTION	LABEL	IFC5000-01520	Pstat Section
PSTATSERIALNO	LABEL	01520	Pstat Serial Number
CTRLMODE	IQUANT	0	Control Mode
ELECTROMETER	IQUANT	1	RE=0 or CS=1
IESTAB	IQUANT	0	I/E Stability
CASPEED	IQUANT	4	Control Amp Speed
CONVENTION	IQUANT	1	Current Convention
ICHRANGE	IQUANT	2	Ich Range
ICHRANGEMODE	TOGGLE	T	Ich Auto Range
ICHOFFSETENABLE	TOGGLE	F	Ich Offset Enable
ICHOFFSET	QUANT	0	Ich Offset (V)
ICHFILTER	IQUANT	1	Ich Filter
VCHRANGE	IQUANT	2	Vch Range
VCHRANGEMODE	TOGGLE	T	Vch Auto Range
VCHOFFSETENABLE	TOGGLE	F	Vch Offset Enable
VCHOFFSET	QUANT	0	Vch Offset (V)
VCHFILTER	IQUANT	1	Vch Filter
IERANGELOWERLIMIT	IQUANT	9	I/E Range Lower Limit
IERANGEMODE	TOGGLE	F	I/E AutoRange
IERANGE	IQUANT	10	I/E Range
ACHSELECT	IQUANT	1	Ach Select
ACHRANGE	IQUANT	2	Ach Range
ACHOFFSETENABLE	TOGGLE	F	Ach Offset Enable
ACHOFFSET	QUANT	0	Ach Offset (V)
ACHFILTER	IQUANT	1	Ach Filter
CABLEID	IQUANT	14	Cable ID
DCCALDATE	LABEL	20-10-2016	DC Calibration Date
ACCALDATE	LABEL	12/3/2015	AC Calibration Date
FRAMEWORKVERSION	QUANT	7.01	Framework Version
INSTRUMENTVERSION	LABEL	4.00	Instrument Version
CURVE	TABLE	71
	Pt	T	Vf	Im	Vu	Pwr	Sig	Ach	Temp	IERange	Over
	#	s	V	A	V	W	V	V	deg C	#	bits
	0	0.013333	5.86365E-001	5.99571E-003	0.00000E+000	3.51567E-003	3.59960E-001	-1.05586E+000	3.57850E+000	10	...........
	1	0.026667	5.94658E-001	5.99280E-003	0.00000E+000	3.56367E-003	3.59960E-001	-1.06480E+000	3.57850E+000	10	...........
	2	0.04	6.02139E-001	5.99516E-003	0.00000E+000	3.60992E-003	3.59960E-001	-1.06251E+000	3.57850E+000	10	...........
	3	0.053333	6.09277E-001	5.99549E-003	0.00000E+000	3.65292E-003	3.59960E-001	-1.05565E+000	3.57850E+000	10	...........
	4	0.066667	6.16218E-001	5.99814E-003	0.00000E+000	3.69616E-003	3.59960E-001	-1.06480E+000	3.57850E+000	10	...........
	5	0.08	6.22926E-001	5.99156E-003	0.00000E+000	3.73230E-003	3.59960E-001	-1.06275E+000	3.57850E+000	10	...........
	6	0.093333	6.29461E-001	5.99550E-003	0.00000E+000	3.77393E-003	3.59960E-001	-1.05565E+000	3.57850E+000	10	...........
	7	0.106667	6.35878E-001	5.99536E-003	0.00000E+000	3.81232E-003	3.59960E-001	-1.06453E+000	3.57850E+000	10	...........
	8	0.12	6.42264E-001	5.99519E-003	0.00000E+000	3.85050E-003	3.59960E-001	-1.06263E+000	3.57850E+000	10	...........
	9	0.133333	6.48530E-001	5.99776E-003	0.00000E+000	3.88973E-003	3.59960E-001	-1.05579E+000	3.57850E+000	10	...........
	10	0.146667	6.54715E-001	5.99502E-003	0.00000E+000	3.92503E-003	3.59960E-001	-1.06462E+000	3.57850E+000	10	...........
	11	0.16	6.60875E-001	5.99223E-003	0.00000E+000	3.96011E-003	3.59960E-001	-1.06275E+000	3.57850E+000	10	...........
	12	0.173333	6.67062E-001	5.99367E-003	0.00000E+000	3.99815E-003	3.59960E-001	-1.05558E+000	3.57850E+000	10	...........
	13	0.186667	6.73133E-001	5.99616E-003	0.00000E+000	4.03621E-003	3.59960E-001	-1.06448E+000	3.57850E+000	10	...........
	14	0.2	6.79212E-001	5.98867E-003	0.00000E+000	4.06757E-003	3.59960E-001	-1.06231E+000	3.57850E+000	10	...........
	15	0.213333	6.85263E-001	5.99327E-003	0.00000E+000	4.10696E-003	3.59960E-001	-1.05523E+000	3.57850E+000	10	...........
	16	0.226667	6.91289E-001	5.99087E-003	0.00000E+000	4.14142E-003	3.59960E-001	-1.06397E+000	3.57850E+000	10	...........
	17	0.24	6.97267E-001	5.99520E-003	0.00000E+000	4.18026E-003	3.59960E-001	-1.06201E+000	3.57850E+000	10	...........
	18	0.253333	7.03261E-001	5.99601E-003	0.00000E+000	4.21676E-003	3.59960E-001	-1.05495E+000	3.57850E+000	10	...........
	19	0.266667	7.09178E-001	5.99530E-003	0.00000E+000	4.25174E-003	3.59960E-001	-1.06397E+000	3.57850E+000	10	...........
	20	0.28	7.15137E-001	5.99128E-003	0.00000E+000	4.28459E-003	3.59960E-001	-1.06225E+000	3.57850E+000	10	...........
	21	0.293333	7.21095E-001	5.99561E-003	0.00000E+000	4.32340E-003	3.59960E-001	-1.05512E+000	3.57850E+000	10	...........
	22	0.306667	7.27048E-001	5.99868E-003	0.00000E+000	4.36133E-003	3.59960E-001	-1.06384E+000	3.57850E+000	10	...........
	23	0.32	7.32970E-001	5.99505E-003	0.00000E+000	4.39420E-003	3.59960E-001	-1.06204E+000	3.57850E+000	10	...........
	24	0.333333	7.38844E-001	5.99377E-003	0.00000E+000	4.42846E-003	3.59960E-001	-1.05485E+000	3.57850E+000	10	...........
	25	0.346667	7.44766E-001	5.99433E-003	0.00000E+000	4.46438E-003	3.59960E-001	-1.06405E+000	3.57850E+000	10	...........
	26	0.36	7.50689E-001	5.99973E-003	0.00000E+000	4.50393E-003	3.59960E-001	-1.06215E+000	3.57850E+000	10	...........
	27	0.373333	7.56560E-001	5.99477E-003	0.00000E+000	4.53541E-003	3.59960E-001	-1.05477E+000	3.57850E+000	10	...........
	28	0.386667	7.62466E-001	5.99465E-003	0.00000E+000	4.57072E-003	3.59960E-001	-1.06376E+000	3.57850E+000	10	...........
	29	0.4	7.68366E-001	5.99196E-003	0.00000E+000	4.60401E-003	3.59960E-001	-1.06213E+000	3.57850E+000	10	...........
	30	0.413333	7.74227E-001	5.99188E-003	0.00000E+000	4.63908E-003	3.59960E-001	-1.05501E+000	3.57850E+000	10	...........
	31	0.426667	7.80110E-001	5.99117E-003	0.00000E+000	4.67378E-003	3.59960E-001	-1.06379E+000	3.57850E+000	10	...........
	32	0.44	7.85984E-001	5.99470E-003	0.00000E+000	4.71174E-003	3.59960E-001	-1.06240E+000	3.57850E+000	10	...........
	33	0.453333	7.91857E-001	5.99445E-003	0.00000E+000	4.74675E-003	3.59960E-001	-1.05494E+000	3.57782E+000	10	...........
	34	0.466667	7.97710E-001	5.99726E-003	0.00000E+000	4.78408E-003	3.59960E-001	-1.06395E+000	3.57720E+000	10	...........
	35	0.48	8.03584E-001	5.99288E-003	0.00000E+000	4.81578E-003	3.59960E-001	-1.06238E+000	3.57720E+000	10	...........
	36	0.493333	8.09412E-001	5.99219E-003	0.00000E+000	4.85015E-003	3.59960E-001	-1.05504E+000	3.57720E+000	10	...........
	37	0.506667	8.15292E-001	5.99594E-003	0.00000E+000	4.88844E-003	3.59960E-001	-1.06366E+000	3.57720E+000	10	...........
	38	0.52	8.21160E-001	5.99891E-003	0.00000E+000	4.92607E-003	3.59960E-001	-1.06189E+000	3.57720E+000	10	...........
	39	0.533333	8.27013E-001	5.99515E-003	0.00000E+000	4.95806E-003	3.59960E-001	-1.05462E+000	3.57720E+000	10	...........
	40	0.546667	8.32857E-001	5.99269E-003	0.00000E+000	4.99105E-003	3.59960E-001	-1.06343E+000	3.57720E+000	10	...........
	41	0.56	8.38681E-001	5.99223E-003	0.00000E+000	5.02556E-003	3.59960E-001	-1.06201E+000	3.57720E+000	10	...........
	42	0.573333	8.44548E-001	5.99131E-003	0.00000E+000	5.05995E-003	3.59960E-001	-1.05452E+000	3.57720E+000	10	...........
	43	0.586667	8.50376E-001	5.99906E-003	0.00000E+000	5.10146E-003	3.59960E-001	-1.06328E+000	3.57720E+000	10	...........
	44	0.6	8.56230E-001	5.99529E-003	0.00000E+000	5.13335E-003	3.59960E-001	-1.06185E+000	3.57720E+000	10	...........
	45	0.613333	8.62040E-001	5.99191E-003	0.00000E+000	5.16527E-003	3.59960E-001	-1.05461E+000	3.57720E+000	10	...........
	46	0.626667	8.67821E-001	5.99286E-003	0.00000E+000	5.20073E-003	3.59960E-001	-1.06323E+000	3.57720E+000	10	...........
	47	0.64	8.73636E-001	5.99401E-003	0.00000E+000	5.23658E-003	3.59960E-001	-1.06202E+000	3.57720E+000	10	...........
	48	0.653333	8.79426E-001	5.99174E-003	0.00000E+000	5.26929E-003	3.59960E-001	-1.05430E+000	3.57720E+000	10	...........
	49	0.666667	8.85199E-001	5.99208E-003	0.00000E+000	5.30418E-003	3.59960E-001	-1.06320E+000	3.57720E+000	10	...........
	50	0.68	8.90966E-001	5.99229E-003	0.00000E+000	5.33893E-003	3.59960E-001	-1.06211E+000	3.57720E+000	10	...........
	51	0.693333	8.96663E-001	5.98975E-003	0.00000E+000	5.37079E-003	3.59960E-001	-1.05456E+000	3.57720E+000	10	...........
	52	0.706667	9.02420E-001	5.99578E-003	0.00000E+000	5.41072E-003	3.59960E-001	-1.06295E+000	3.57720E+000	10	...........
	53	0.72	9.08150E-001	5.99385E-003	0.00000E+000	5.44332E-003	3.59960E-001	-1.06199E+000	3.57720E+000	10	...........
	54	0.733333	9.13873E-001	5.99569E-003	0.00000E+000	5.47930E-003	3.59960E-001	-1.05472E+000	3.57720E+000	10	...........
	55	0.746667	9.19613E-001	5.99209E-003	0.00000E+000	5.51041E-003	3.59960E-001	-1.06338E+000	3.57720E+000	10	...........
	56	0.76	9.25323E-001	5.99379E-003	0.00000E+000	5.54619E-003	3.59960E-001	-1.06202E+000	3.57720E+000	10	...........
	57	0.773333	9.30976E-001	5.99820E-003	0.00000E+000	5.58418E-003	3.59960E-001	-1.05451E+000	3.57720E+000	10	...........
	58	0.786667	9.36616E-001	5.99527E-003	0.00000E+000	5.61527E-003	3.59960E-001	-1.06292E+000	3.57720E+000	10	...........
	59	0.8	9.42211E-001	5.99288E-003	0.00000E+000	5.64656E-003	3.59960E-001	-1.06218E+000	3.57720E+000	10	...........
	60	0.813333	9.47822E-001	5.99356E-003	0.00000E+000	5.68083E-003	3.59960E-001	-1.05468E+000	3.57720E+000	10	...........
	61	0.826667	9.53372E-001	5.99446E-003	0.00000E+000	5.71495E-003	3.59960E-001	-1.06300E+000	3.57720E+000	10	...........
	62	0.84	9.58921E-001	5.99572E-003	0.00000E+000	5.74942E-003	3.59960E-001	-1.06176E+000	3.57720E+000	10	...........
	63	0.853333	9.64431E-001	5.99227E-003	0.00000E+000	5.77913E-003	3.59960E-001	-1.05387E+000	3.57720E+000	10	...........
	64	0.866667	9.69924E-001	5.99466E-003	0.00000E+000	5.81436E-003	3.59960E-001	-1.06245E+000	3.57720E+000	10	...........
	65	0.88	9.75425E-001	5.99120E-003	0.00000E+000	5.84397E-003	3.59960E-001	-1.06189E+000	3.57720E+000	10	...........
	66	0.893333	9.80831E-001	5.99486E-003	0.00000E+000	5.87994E-003	3.59960E-001	-1.05410E+000	3.57720E+000	10	...........
	67	0.906667	9.86191E-001	5.99494E-003	0.00000E+000	5.91216E-003	3.59960E-001	-1.06197E+000	3.57720E+000	10	...........
	68	0.92	9.91566E-001	5.99495E-003	0.00000E+000	5.94439E-003	3.59960E-001	-1.06155E+000	3.57720E+000	10	...........
	69	0.933333	9.96878E-001	5.99237E-003	0.00000E+000	5.97366E-003	3.59960E-001	-1.05405E+000	3.57720E+000	10	...........
	70	0.936667	1.00021E+000	6.00068E-003	0.00000E+000	6.00196E-003	3.59960E-001	-1.07081E+000	3.57720E+000	10	...........
STARTTIMEOFFSET	QUANT	178.535	Start Time Offset (s)

File: CHARGE_#92.DTA
EXPLAIN
TAG	PWR800_CHARGE
TITLE	LABEL	PWR Cyclic Charge Discharge (Cell) - Charge Step	Test &Identifier
DATE	LABEL	22-6-2017	Date
TIME	LABEL	15:39:09	Time
NOTES	NOTES	3	&Notes...
	supercap test cell
	0.6mg
	6M KOH
PSTAT	PSTAT	IFC5000-01520	Potentiostat
CAPACITY	QUANT	1.00000E-003	Capacity (A-hr)
CELLTYPE	SELECTOR	1	&Cell Type
WORKINGCONNECTION	SELECTOR	0	&Working Lead
MAXCHARGETIME	VARIABLEANDUNITS	1.00000E+002	s	1.00000E+002	second(s)	Max &Charge Time
CHARGECURRENT	QUANT	6.00000E-003	&Charge Current (A)
VOLTAGEFINISH	TWOPARAM	F	1.00000E-003	3.60000E+003	&Voltage Finish	 I (A) < 	Max Time(s)
SAMPLETIME	QUANT	1.00000E-002	Sa&mple Period (s)
CHARGESTOPAT1	MULTIPARAM	4	1.00000E+000	Charge Stop At &1	Voltage > Limit	V
CHARGESTOPAT2	MULTIPARAM	0	0.00000E+000	Charge Stop At &2	None	N/A
AESBHCSELECTOR	TOGGLE	F	Save Both Half Cells
IRCOMP	TOGGLE	F	IR &Measure
EOC	QUANT	0	Open Circuit (V)
SEQUENCER	TOGGLE	TRUE	Run as Sequence
PSTATMODEL	IQUANT	53	Pstat Model
PSTATSECTION	LABEL	IFC5000-01520	Pstat Section
PSTATSERIALNO	LABEL	01520	Pstat Serial Number
CTRLMODE	IQUANT	0	Control Mode
ELECTROMETER	IQUANT	1	RE=0 or CS=1
IESTAB	IQUANT	0	I/E Stability
CASPEED	IQUANT	4	Control Amp Speed
CONVENTION	IQUANT	1	Current Convention
ICHRANGE	IQUANT	2	Ich Range
ICHRANGEMODE	TOGGLE	T	Ich Auto Range
ICHOFFSETENABLE	TOGGLE	F	Ich Offset Enable
ICHOFFSET	QUANT	0	Ich Offset (V)
ICHFILTER	IQUANT	1	Ich Filter
VCHRANGE	IQUANT	2	Vch Range
VCHRANGEMODE	TOGGLE	T	Vch Auto Range
VCHOFFSETENABLE	TOGGLE	F	Vch Offset Enable
VCHOFFSET	QUANT	0	Vch Offset (V)
VCHFILTER	IQUANT	1	Vch Filter
IERANGELOWERLIMIT	IQUANT	9	I/E Range Lower Limit
IERANGEMODE	TOGGLE	F	I/E AutoRange
IERANGE	IQUANT	10	I/E Range
ACHSELECT	IQUANT	1	Ach Select
ACHRANGE	IQUANT	2	Ach Range
ACHOFFSETENABLE	TOGGLE	F	Ach Offset Enable
ACHOFFSET	QUANT	0	Ach Offset (V)
ACHFILTER	IQUANT	1	Ach Filter
CABLEID	IQUANT	14	Cable ID
DCCALDATE	LABEL	20-10-2016	DC Calibration Date
ACCALDATE	LABEL	12/3/2015	AC Calibration Date
FRAMEWORKVERSION	QUANT	7.01	Framework Version
INSTRUMENTVERSION	LABEL	4.00	Instrument Version
CURVE	TABLE	71
	Pt	T	Vf	Im	Vu	Pwr	Sig	Ach	Temp	IERange	Over
	#	s	V	A	V	W	V	V	deg C	#	bits
	0	0.013333	5.87029E-001	5.99263E-003	0.00000E+000	3.51785E-003	3.59960E-001	-1.06436E+000	3.57740E+000	10	...........
	1	0.026667	5.95292E-001	5.99475E-003	0.00000E+000	3.56863E-003	3.59960E-001	-1.05630E+000	3.57740E+000	10	...........
	2	0.04	6.02800E-001	5.99462E-003	0.00000E+000	3.61355E-003	3.59960E-001	-1.06455E+000	3.57740E+000	10	...........
	3	0.053333	6.09927E-001	5.99535E-003	0.00000E+000	3.65672E-003	3.59960E-001	-1.06395E+000	3.57740E+000	10	...........
	4	0.066667	6.16872E-001	5.99582E-003	0.00000E+000	3.69865E-003	3.59960E-001	-1.05621E+000	3.57740E+000	10	...........
	5	0.08	6.23554E-001	5.99050E-003	0.00000E+000	3.73539E-003	3.59960E-001	-1.06455E+000	3.57740E+000	10	...........
	6	0.093333	6.30091E-001	5.99786E-003	0.00000E+000	3.77920E-003	3.59960E-001	-1.06399E+000	3.57740E+000	10	...........
	7	0.106667	6.36543E-001	5.99391E-003	0.00000E+000	3.81538E-003	3.59960E-001	-1.05527E+000	3.57740E+000	10	...........
	8	0.12	6.42921E-001	5.99189E-003	0.00000E+000	3.85231E-003	3.59960E-001	-1.06362E+000	3.57740E+000	10	...........
	9	0.133333	6.49191E-001	5.99566E-003	0.00000E+000	3.89232E-003	3.59960E-001	-1.06365E+000	3.57740E+000	10	...........
	10	0.146667	6.55424E-001	5.99341E-003	0.00000E+000	3.92822E-003	3.59960E-001	-1.05583E+000	3.57740E+000	10	...........
	11	0.16	6.61610E-001	5.99348E-003	0.00000E+000	3.96535E-003	3.59960E-001	-1.06364E+000	3.57740E+000	10	...........
	12	0.173333	6.67735E-001	5.99382E-003	0.00000E+000	4.00228E-003	3.59960E-001	-1.06364E+000	3.57740E+000	10	...........
	13	0.186667	6.73772E-001	5.99460E-003	0.00000E+000	4.03900E-003	3.59960E-001	-1.05548E+000	3.57740E+000	10	...........
	14	0.2	6.79842E-001	5.99666E-003	0.00000E+000	4.07678E-003	3.59960E-001	-1.06350E+000	3.57740E+000	10	...........
	15	0.213333	6.85864E-001	5.99157E-003	0.00000E+000	4.10940E-003	3.59960E-001	-1.06378E+000	3.57740E+000	10	...........
	16	0.226667	6.91860E-001	5.99562E-003	0.00000E+000	4.14813E-003	3.59960E-001	-1.05552E+000	3.57740E+000	10	...........
	17	0.24	6.97867E-001	5.99410E-003	0.00000E+000	4.18309E-003	3.59960E-001	-1.06320E+000	3.57740E+000	10	...........
	18	0.253333	7.03858E-001	5.99525E-003	0.00000E+000	4.21981E-003	3.59960E-001	-1.06367E+000	3.57740E+000	10	...........
	19	0.266667	7.09807E-001	5.99539E-003	0.00000E+000	4.25557E-003	3.59960E-001	-1.05539E+000	3.57740E+000	10	...........
	20	0.28	7.15755E-001	5.99043E-003	0.00000E+000	4.28768E-003	3.59960E-001	-1.06342E+000	3.57740E+000	10	...........
	21	0.293333	7.21740E-001	5.99787E-003	0.00000E+000	4.32890E-003	3.59960E-001	-1.06367E+000	3.57740E+000	10	...........
	22	0.306667	7.27668E-001	5.99479E-003	0.00000E+000	4.36222E-003	3.59960E-001	-1.05516E+000	3.57740E+000	10	...........
	23	0.32	7.33564E-001	5.99513E-003	0.00000E+000	4.39781E-003	3.59960E-001	-1.06316E+000	3.57740E+000	10	...........
	24	0.333333	7.39476E-001	5.99488E-003	0.00000E+000	4.43307E-003	3.59960E-001	-1.06399E+000	3.57740E+000	10	...........
	25	0.346667	7.45404E-001	5.99413E-003	0.00000E+000	4.46804E-003	3.59960E-001	-1.05558E+000	3.57740E+000	10	...........
	26	0.36	7.51272E-001	5.99209E-003	0.00000E+000	4.50169E-003	3.59960E-001	-1.06310E+000	3.57740E+000	10	...........
	27	0.373333	7.57175E-001	5.99529E-003	0.00000E+000	4.53949E-003	3.59960E-001	-1.06377E+000	3.57740E+000	10	...........
	28	0.386667	7.63065E-001	5.99413E-003	0.00000E+000	4.57391E-003	3.59960E-001	-1.05535E+000	3.57740E+000	10	...........
	29	0.4	7.68992E-001	5.99479E-003	0.00000E+000	4.60995E-003	3.59960E-001	-1.06292E+000	3.57740E+000	10	...........
	30	0.413333	7.74861E-001	5.99697E-003	0.00000E+000	4.64682E-003	3.59960E-001	-1.06399E+000	3.57740E+000	10	...........
	31	0.426667	7.80683E-001	5.99393E-003	0.00000E+000	4.67936E-003	3.59960E-001	-1.05480E+000	3.57740E+000	10	...........
	32	0.44	7.86568E-001	5.99397E-003	0.00000E+000	4.71466E-003	3.59960E-001	-1.06252E+000	3.57740E+000	10	...........
	33	0.453333	7.92463E-001	5.99791E-003	0.00000E+000	4.75313E-003	3.59960E-001	-1.06337E+000	3.57740E+000	10	...........
	34	0.466667	7.98399E-001	5.99241E-003	0.00000E+000	4.78434E-003	3.59960E-001	-1.05505E+000	3.57740E+000	10	...........
	35	0.48	8.04223E-001	5.99023E-003	0.00000E+000	4.81748E-003	3.59960E-001	-1.06233E+000	3.57740E+000	10	...........
	36	0.493333	8.10059E-001	5.99710E-003	0.00000E+000	4.85800E-003	3.59960E-001	-1.06362E+000	3.57740E+000	10	...........
	37	0.506667	8.15922E-001	5.99812E-003	0.00000E+000	4.89400E-003	3.59960E-001	-1.05486E+000	3.57740E+000	10	...........
	38	0.52	8.21771E-001	5.99234E-003	0.00000E+000	4.92433E-003	3.59960E-001	-1.06207E+000	3.57740E+000	10	...........
	39	0.533333	8.27615E-001	5.99104E-003	0.00000E+000	4.95827E-003	3.59960E-001	-1.06382E+000	3.57740E+000	10	...........
	40	0.546667	8.33492E-001	5.99384E-003	0.00000E+000	4.99582E-003	3.59960E-001	-1.05512E+000	3.57740E+000	10	...........
	41	0.56	8.39342E-001	5.99471E-003	0.00000E+000	5.03161E-003	3.59960E-001	-1.06201E+000	3.57740E+000	10	...........
	42	0.573333	8.45202E-001	5.99397E-003	0.00000E+000	5.06611E-003	3.59960E-001	-1.06409E+000	3.57740E+000	10	...........
	43	0.586667	8.50985E-001	5.99658E-003	0.00000E+000	5.10300E-003	3.59960E-001	-1.05484E+000	3.57740E+000	10	...........
	44	0.6	8.56814E-001	5.99099E-003	0.00000E+000	5.13316E-003	3.59960E-001	-1.06203E+000	3.57740E+000	10	...........
	45	0.613333	8.62647E-001	5.99125E-003	0.00000E+000	5.16833E-003	3.59960E-001	-1.06390E+000	3.57740E+000	10	...........
	46	0.626667	8.68507E-001	5.99754E-003	0.00000E+000	5.20890E-003	3.59960E-001	-1.05506E+000	3.57740E+000	10	...........
	47	0.64	8.74280E-001	5.99430E-003	0.00000E+000	5.24070E-003	3.59960E-001	-1.06178E+000	3.57740E+000	10	...........
	48	0.653333	8.80067E-001	5.99451E-003	0.00000E+000	5.27557E-003	3.59960E-001	-1.06413E+000	3.57740E+000	10	...........
	49	0.666667	8.85864E-001	5.99828E-003	0.00000E+000	5.31366E-003	3.59960E-001	-1.05514E+000	3.57740E+000	10	...........
	50	0.68	8.91595E-001	5.99372E-003	0.00000E+000	5.34397E-003	3.59960E-001	-1.06203E+000	3.57740E+000	10	...........
	51	0.693333	8.97342E-001	5.99155E-003	0.00000E+000	5.37647E-003	3.59960E-001	-1.06421E+000	3.57740E+000	10	...........
	52	0.706667	9.03062E-001	5.98619E-003	0.00000E+000	5.40590E-003	3.59960E-001	-1.05503E+000	3.57740E+000	10	...........
	53	0.72	9.08846E-001	5.99229E-003	0.00000E+000	5.44607E-003	3.59960E-001	-1.06168E+000	3.57740E+000	10	...........
	54	0.733333	9.14572E-001	5.99627E-003	0.00000E+000	5.48403E-003	3.59960E-001	-1.06426E+000	3.57740E+000	10	...........
	55	0.746667	9.20296E-001	5.99527E-003	0.00000E+000	5.51742E-003	3.59960E-001	-1.05495E+000	3.57740E+000	10	...........
	56	0.76	9.25995E-001	5.99220E-003	0.00000E+000	5.54875E-003	3.59960E-001	-1.06112E+000	3.57740E+000	10	...........
	57	0.773333	9.31637E-001	5.99574E-003	0.00000E+000	5.58586E-003	3.59960E-001	-1.06385E+000	3.57740E+000	10	...........
	58	0.786667	9.37285E-001	5.99343E-003	0.00000E+000	5.61755E-003	3.59960E-001	-1.05464E+000	3.57795E+000	10	...........
	59	0.8	9.42868E-001	5.99500E-003	0.00000E+000	5.65249E-003	3.59960E-001	-1.06111E+000	3.57850E+000	10	...........
	60	0.813333	9.48480E-001	5.99290E-003	0.00000E+000	5.68415E-003	3.59960E-001	-1.06415E+000	3.57850E+000	10	...........
	61	0.826667	9.54031E-001	5.99407E-003	0.00000E+000	5.71853E-003	3.59960E-001	-1.05492E+000	3.57850E+000	10	...........
	62	0.84	9.59553E-001	5.99519E-003	0.00000E+000	5.75270E-003	3.59960E-001	-1.06083E+000	3.57850E+000	10	...........
	63	0.853333	9.65022E-001	5.99570E-003	0.00000E+000	5.78598E-003	3.59960E-001	-1.06430E+000	3.57850E+000	10	...........
	64	0.866667	9.70542E-001	5.99464E-003	0.00000E+000	5.81805E-003	3.59960E-001	-1.05500E+000	3.57850E+000	10	...........
	65	0.88	9.76029E-001	5.99149E-003	0.00000E+000	5.84786E-003	3.59960E-001	-1.06114E+000	3.57850E+000	10	...........
	66	0.893333	9.81447E-001	5.99244E-003	0.00000E+000	5.88126E-003	3.59960E-001	-1.06430E+000	3.57850E+000	10	...........
	67	0.906667	9.86844E-001	5.99620E-003	0.00000E+000	5.91731E-003	3.59960E-001	-1.05471E+000	3.57850E+000	10	...........
	68	0.92	9.92189E-001	5.99010E-003	0.00000E+000	5.94331E-003	3.59960E-001	-1.06066E+000	3.57850E+000	10	...........
	69	0.933333	9.97551E-001	5.99618E-003	0.00000E+000	5.98149E-003	3.59960E-001	-1.06440E+000	3.57850E+000	10	...........
	70	0.935	1.00054E+000	5.99104E-003	0.00000E+000	5.99430E-003	3.59960E-001	-1.06652E+000	3.57850E+000	10	...........
STARTTIMEOFFSET	QUANT	180.395	Start Time Offset (s)