Folder: Tesis/Data/CV_CRGO300517_1/PWRCCD_CRGO300517_1/CHARGE_DISCHARGE (part 168)

File: CHARGE_#341.DTA
EXPLAIN
TAG	PWR800_CHARGE
TITLE	LABEL	PWR Cyclic Charge Discharge (Cell) - Charge Step	Test &Identifier
DATE	LABEL	22-6-2017	Date
TIME	LABEL	15:49:36	Time
NOTES	NOTES	3	&Notes...
	supercap test cell
	0.6mg
	6M KOH
PSTAT	PSTAT	IFC5000-01520	Potentiostat
CAPACITY	QUANT	1.00000E-003	Capacity (A-hr)
CELLTYPE	SELECTOR	1	&Cell Type
WORKINGCONNECTION	SELECTOR	0	&Working Lead
MAXCHARGETIME	VARIABLEANDUNITS	1.00000E+002	s	1.00000E+002	second(s)	Max &Charge Time
CHARGECURRENT	QUANT	6.00000E-003	&Charge Current (A)
VOLTAGEFINISH	TWOPARAM	F	1.00000E-003	3.60000E+003	&Voltage Finish	 I (A) < 	Max Time(s)
SAMPLETIME	QUANT	1.00000E-002	Sa&mple Period (s)
CHARGESTOPAT1	MULTIPARAM	4	1.00000E+000	Charge Stop At &1	Voltage > Limit	V
CHARGESTOPAT2	MULTIPARAM	0	0.00000E+000	Charge Stop At &2	None	N/A
AESBHCSELECTOR	TOGGLE	F	Save Both Half Cells
IRCOMP	TOGGLE	F	IR &Measure
EOC	QUANT	0	Open Circuit (V)
SEQUENCER	TOGGLE	TRUE	Run as Sequence
PSTATMODEL	IQUANT	53	Pstat Model
PSTATSECTION	LABEL	IFC5000-01520	Pstat Section
PSTATSERIALNO	LABEL	01520	Pstat Serial Number
CTRLMODE	IQUANT	0	Control Mode
ELECTROMETER	IQUANT	1	RE=0 or CS=1
IESTAB	IQUANT	0	I/E Stability
CASPEED	IQUANT	4	Control Amp Speed
CONVENTION	IQUANT	1	Current Convention
ICHRANGE	IQUANT	2	Ich Range
ICHRANGEMODE	TOGGLE	T	Ich Auto Range
ICHOFFSETENABLE	TOGGLE	F	Ich Offset Enable
ICHOFFSET	QUANT	0	Ich Offset (V)
ICHFILTER	IQUANT	1	Ich Filter
VCHRANGE	IQUANT	2	Vch Range
VCHRANGEMODE	TOGGLE	T	Vch Auto Range
VCHOFFSETENABLE	TOGGLE	F	Vch Offset Enable
VCHOFFSET	QUANT	0	Vch Offset (V)
VCHFILTER	IQUANT	1	Vch Filter
IERANGELOWERLIMIT	IQUANT	9	I/E Range Lower Limit
IERANGEMODE	TOGGLE	F	I/E AutoRange
IERANGE	IQUANT	10	I/E Range
ACHSELECT	IQUANT	1	Ach Select
ACHRANGE	IQUANT	2	Ach Range
ACHOFFSETENABLE	TOGGLE	F	Ach Offset Enable
ACHOFFSET	QUANT	0	Ach Offset (V)
ACHFILTER	IQUANT	1	Ach Filter
CABLEID	IQUANT	14	Cable ID
DCCALDATE	LABEL	20-10-2016	DC Calibration Date
ACCALDATE	LABEL	12/3/2015	AC Calibration Date
FRAMEWORKVERSION	QUANT	7.01	Framework Version
INSTRUMENTVERSION	LABEL	4.00	Instrument Version
CURVE	TABLE	62
	Pt	T	Vf	Im	Vu	Pwr	Sig	Ach	Temp	IERange	Over
	#	s	V	A	V	W	V	V	deg C	#	bits
	0	0.013333	6.19995E-001	5.99423E-003	0.00000E+000	3.71639E-003	3.59960E-001	-1.11548E+000	3.57810E+000	10	...........
	1	0.026667	6.28639E-001	5.99603E-003	0.00000E+000	3.76934E-003	3.59960E-001	-1.12585E+000	3.57810E+000	10	...........
	2	0.04	6.36621E-001	5.99017E-003	0.00000E+000	3.81347E-003	3.59960E-001	-1.11834E+000	3.57810E+000	10	...........
	3	0.053333	6.44219E-001	5.99359E-003	0.00000E+000	3.86118E-003	3.59960E-001	-1.11576E+000	3.57810E+000	10	...........
	4	0.066667	6.51475E-001	5.99155E-003	0.00000E+000	3.90334E-003	3.59960E-001	-1.12609E+000	3.57810E+000	10	...........
	5	0.08	6.58524E-001	5.98885E-003	0.00000E+000	3.94380E-003	3.59960E-001	-1.11832E+000	3.57810E+000	10	...........
	6	0.093333	6.65510E-001	5.99257E-003	0.00000E+000	3.98812E-003	3.59960E-001	-1.11561E+000	3.57810E+000	10	...........
	7	0.106667	6.72373E-001	5.99487E-003	0.00000E+000	4.03079E-003	3.59960E-001	-1.12595E+000	3.57810E+000	10	...........
	8	0.12	6.79105E-001	5.98961E-003	0.00000E+000	4.06758E-003	3.59960E-001	-1.11851E+000	3.57810E+000	10	...........
	9	0.133333	6.85787E-001	5.98929E-003	0.00000E+000	4.10737E-003	3.59960E-001	-1.11545E+000	3.57810E+000	10	...........
	10	0.146667	6.92445E-001	5.99704E-003	0.00000E+000	4.15262E-003	3.59960E-001	-1.12586E+000	3.57810E+000	10	...........
	11	0.16	6.98999E-001	5.99536E-003	0.00000E+000	4.19075E-003	3.59960E-001	-1.11857E+000	3.57810E+000	10	...........
	12	0.173333	7.05554E-001	5.99528E-003	0.00000E+000	4.22999E-003	3.59960E-001	-1.11584E+000	3.57810E+000	10	...........
	13	0.186667	7.12034E-001	5.99661E-003	0.00000E+000	4.26979E-003	3.59960E-001	-1.12627E+000	3.57810E+000	10	...........
	14	0.2	7.18580E-001	5.99312E-003	0.00000E+000	4.30654E-003	3.59960E-001	-1.11863E+000	3.57810E+000	10	...........
	15	0.213333	7.25020E-001	5.99429E-003	0.00000E+000	4.34598E-003	3.59960E-001	-1.11594E+000	3.57810E+000	10	...........
	16	0.226667	7.31443E-001	5.99289E-003	0.00000E+000	4.38346E-003	3.59960E-001	-1.12618E+000	3.57810E+000	10	...........
	17	0.24	7.37802E-001	5.99499E-003	0.00000E+000	4.42312E-003	3.59960E-001	-1.11883E+000	3.57810E+000	10	...........
	18	0.253333	7.44209E-001	5.99401E-003	0.00000E+000	4.46080E-003	3.59960E-001	-1.11586E+000	3.57810E+000	10	...........
	19	0.266667	7.50584E-001	5.99358E-003	0.00000E+000	4.49869E-003	3.59960E-001	-1.12575E+000	3.57810E+000	10	...........
	20	0.28	7.56967E-001	5.99552E-003	0.00000E+000	4.53841E-003	3.59960E-001	-1.11864E+000	3.57810E+000	10	...........
	21	0.293333	7.63304E-001	5.99871E-003	0.00000E+000	4.57884E-003	3.59960E-001	-1.11516E+000	3.57810E+000	10	...........
	22	0.306667	7.69640E-001	5.99442E-003	0.00000E+000	4.61354E-003	3.59960E-001	-1.12545E+000	3.57810E+000	10	...........
	23	0.32	7.75935E-001	5.99268E-003	0.00000E+000	4.64993E-003	3.59960E-001	-1.11798E+000	3.57810E+000	10	...........
	24	0.333333	7.82237E-001	5.99270E-003	0.00000E+000	4.68771E-003	3.59960E-001	-1.11453E+000	3.57810E+000	10	...........
	25	0.346667	7.88508E-001	5.99320E-003	0.00000E+000	4.72569E-003	3.59960E-001	-1.12497E+000	3.57810E+000	10	...........
	26	0.36	7.94787E-001	5.99388E-003	0.00000E+000	4.76385E-003	3.59960E-001	-1.11818E+000	3.57810E+000	10	...........
	27	0.373333	8.01049E-001	5.99698E-003	0.00000E+000	4.80388E-003	3.59960E-001	-1.11478E+000	3.57810E+000	10	...........
	28	0.386667	8.07314E-001	5.99102E-003	0.00000E+000	4.83663E-003	3.59960E-001	-1.12478E+000	3.57810E+000	10	...........
	29	0.4	8.13528E-001	5.99328E-003	0.00000E+000	4.87570E-003	3.59960E-001	-1.11768E+000	3.57810E+000	10	...........
	30	0.413333	8.19782E-001	5.99119E-003	0.00000E+000	4.91148E-003	3.59960E-001	-1.11399E+000	3.57810E+000	10	...........
	31	0.426667	8.26017E-001	5.99199E-003	0.00000E+000	4.94948E-003	3.59960E-001	-1.12404E+000	3.57810E+000	10	...........
	32	0.44	8.32192E-001	5.99024E-003	0.00000E+000	4.98503E-003	3.59960E-001	-1.11734E+000	3.57810E+000	10	...........
	33	0.453333	8.38393E-001	5.99491E-003	0.00000E+000	5.02609E-003	3.59960E-001	-1.11379E+000	3.57810E+000	10	...........
	34	0.466667	8.44605E-001	5.99715E-003	0.00000E+000	5.06522E-003	3.59960E-001	-1.12385E+000	3.57810E+000	10	...........
	35	0.48	8.50776E-001	5.98898E-003	0.00000E+000	5.09528E-003	3.59960E-001	-1.11723E+000	3.57810E+000	10	...........
	36	0.493333	8.56937E-001	5.99342E-003	0.00000E+000	5.13598E-003	3.59960E-001	-1.11376E+000	3.57810E+000	10	...........
	37	0.506667	8.63077E-001	5.99369E-003	0.00000E+000	5.17301E-003	3.59960E-001	-1.12426E+000	3.57810E+000	10	...........
	38	0.52	8.69227E-001	5.99235E-003	0.00000E+000	5.20871E-003	3.59960E-001	-1.11750E+000	3.57810E+000	10	...........
	39	0.533333	8.75362E-001	5.99449E-003	0.00000E+000	5.24735E-003	3.59960E-001	-1.11389E+000	3.57810E+000	10	...........
	40	0.546667	8.81413E-001	5.99334E-003	0.00000E+000	5.28261E-003	3.59960E-001	-1.12403E+000	3.57810E+000	10	...........
	41	0.56	8.87514E-001	5.99599E-003	0.00000E+000	5.32153E-003	3.59960E-001	-1.11752E+000	3.57810E+000	10	...........
	42	0.573333	8.93567E-001	5.99652E-003	0.00000E+000	5.35830E-003	3.59960E-001	-1.11398E+000	3.57810E+000	10	...........
	43	0.586667	8.99613E-001	5.99516E-003	0.00000E+000	5.39332E-003	3.59960E-001	-1.12381E+000	3.57810E+000	10	...........
	44	0.6	9.05619E-001	5.99280E-003	0.00000E+000	5.42719E-003	3.59960E-001	-1.11740E+000	3.57810E+000	10	...........
	45	0.613333	9.11578E-001	5.99232E-003	0.00000E+000	5.46246E-003	3.59960E-001	-1.11373E+000	3.57810E+000	10	...........
	46	0.626667	9.17562E-001	5.99289E-003	0.00000E+000	5.49885E-003	3.59960E-001	-1.12398E+000	3.57810E+000	10	...........
	47	0.64	9.23524E-001	5.99286E-003	0.00000E+000	5.53456E-003	3.59960E-001	-1.11759E+000	3.57996E+000	10	...........
	48	0.653333	9.29435E-001	5.99284E-003	0.00000E+000	5.56996E-003	3.59960E-001	-1.11394E+000	3.58000E+000	10	...........
	49	0.666667	9.35290E-001	5.99653E-003	0.00000E+000	5.60850E-003	3.59960E-001	-1.12374E+000	3.58000E+000	10	...........
	50	0.68	9.41113E-001	5.99030E-003	0.00000E+000	5.63755E-003	3.59960E-001	-1.11773E+000	3.58000E+000	10	...........
	51	0.693333	9.46951E-001	5.99350E-003	0.00000E+000	5.67555E-003	3.59960E-001	-1.11386E+000	3.58000E+000	10	...........
	52	0.706667	9.52670E-001	5.99379E-003	0.00000E+000	5.71011E-003	3.59960E-001	-1.12370E+000	3.58000E+000	10	...........
	53	0.72	9.58355E-001	5.99241E-003	0.00000E+000	5.74286E-003	3.59960E-001	-1.11755E+000	3.58000E+000	10	...........
	54	0.733333	9.64049E-001	5.99150E-003	0.00000E+000	5.77610E-003	3.59960E-001	-1.11339E+000	3.58000E+000	10	...........
	55	0.746667	9.69660E-001	5.99510E-003	0.00000E+000	5.81321E-003	3.59960E-001	-1.12298E+000	3.58000E+000	10	...........
	56	0.76	9.75302E-001	5.99176E-003	0.00000E+000	5.84377E-003	3.59960E-001	-1.11709E+000	3.58000E+000	10	...........
	57	0.773333	9.80877E-001	5.99845E-003	0.00000E+000	5.88375E-003	3.59960E-001	-1.11328E+000	3.58000E+000	10	...........
	58	0.786667	9.86378E-001	5.99603E-003	0.00000E+000	5.91435E-003	3.59960E-001	-1.12293E+000	3.58000E+000	10	...........
	59	0.8	9.91837E-001	5.99197E-003	0.00000E+000	5.94305E-003	3.59960E-001	-1.11729E+000	3.58000E+000	10	...........
	60	0.813333	9.97285E-001	5.99618E-003	0.00000E+000	5.97990E-003	3.59960E-001	-1.11331E+000	3.58000E+000	10	...........
	61	0.815	1.00036E+000	6.00038E-003	0.00000E+000	6.00257E-003	3.59960E-001	-1.12551E+000	3.58000E+000	10	...........
STARTTIMEOFFSET	QUANT	608.0914	Start Time Offset (s)

File: CHARGE_#342.DTA
EXPLAIN
TAG	PWR800_CHARGE
TITLE	LABEL	PWR Cyclic Charge Discharge (Cell) - Charge Step	Test &Identifier
DATE	LABEL	22-6-2017	Date
TIME	LABEL	15:49:39	Time
NOTES	NOTES	3	&Notes...
	supercap test cell
	0.6mg
	6M KOH
PSTAT	PSTAT	IFC5000-01520	Potentiostat
CAPACITY	QUANT	1.00000E-003	Capacity (A-hr)
CELLTYPE	SELECTOR	1	&Cell Type
WORKINGCONNECTION	SELECTOR	0	&Working Lead
MAXCHARGETIME	VARIABLEANDUNITS	1.00000E+002	s	1.00000E+002	second(s)	Max &Charge Time
CHARGECURRENT	QUANT	6.00000E-003	&Charge Current (A)
VOLTAGEFINISH	TWOPARAM	F	1.00000E-003	3.60000E+003	&Voltage Finish	 I (A) < 	Max Time(s)
SAMPLETIME	QUANT	1.00000E-002	Sa&mple Period (s)
CHARGESTOPAT1	MULTIPARAM	4	1.00000E+000	Charge Stop At &1	Voltage > Limit	V
CHARGESTOPAT2	MULTIPARAM	0	0.00000E+000	Charge Stop At &2	None	N/A
AESBHCSELECTOR	TOGGLE	F	Save Both Half Cells
IRCOMP	TOGGLE	F	IR &Measure
EOC	QUANT	0	Open Circuit (V)
SEQUENCER	TOGGLE	TRUE	Run as Sequence
PSTATMODEL	IQUANT	53	Pstat Model
PSTATSECTION	LABEL	IFC5000-01520	Pstat Section
PSTATSERIALNO	LABEL	01520	Pstat Serial Number
CTRLMODE	IQUANT	0	Control Mode
ELECTROMETER	IQUANT	1	RE=0 or CS=1
IESTAB	IQUANT	0	I/E Stability
CASPEED	IQUANT	4	Control Amp Speed
CONVENTION	IQUANT	1	Current Convention
ICHRANGE	IQUANT	2	Ich Range
ICHRANGEMODE	TOGGLE	T	Ich Auto Range
ICHOFFSETENABLE	TOGGLE	F	Ich Offset Enable
ICHOFFSET	QUANT	0	Ich Offset (V)
ICHFILTER	IQUANT	1	Ich Filter
VCHRANGE	IQUANT	2	Vch Range
VCHRANGEMODE	TOGGLE	T	Vch Auto Range
VCHOFFSETENABLE	TOGGLE	F	Vch Offset Enable
VCHOFFSET	QUANT	0	Vch Offset (V)
VCHFILTER	IQUANT	1	Vch Filter
IERANGELOWERLIMIT	IQUANT	9	I/E Range Lower Limit
IERANGEMODE	TOGGLE	F	I/E AutoRange
IERANGE	IQUANT	10	I/E Range
ACHSELECT	IQUANT	1	Ach Select
ACHRANGE	IQUANT	2	Ach Range
ACHOFFSETENABLE	TOGGLE	F	Ach Offset Enable
ACHOFFSET	QUANT	0	Ach Offset (V)
ACHFILTER	IQUANT	1	Ach Filter
CABLEID	IQUANT	14	Cable ID
DCCALDATE	LABEL	20-10-2016	DC Calibration Date
ACCALDATE	LABEL	12/3/2015	AC Calibration Date
FRAMEWORKVERSION	QUANT	7.01	Framework Version
INSTRUMENTVERSION	LABEL	4.00	Instrument Version
CURVE	TABLE	62
	Pt	T	Vf	Im	Vu	Pwr	Sig	Ach	Temp	IERange	Over
	#	s	V	A	V	W	V	V	deg C	#	bits
	0	0.013333	6.19981E-001	5.99444E-003	0.00000E+000	3.71644E-003	3.59960E-001	-1.12583E+000	3.57660E+000	10	...........
	1	0.026667	6.28635E-001	5.98957E-003	0.00000E+000	3.76525E-003	3.59960E-001	-1.11581E+000	3.57660E+000	10	...........
	2	0.04	6.36580E-001	5.99362E-003	0.00000E+000	3.81542E-003	3.59960E-001	-1.11727E+000	3.57660E+000	10	...........
	3	0.053333	6.44122E-001	5.99015E-003	0.00000E+000	3.85839E-003	3.59960E-001	-1.12558E+000	3.57660E+000	10	...........
	4	0.066667	6.51434E-001	5.99669E-003	0.00000E+000	3.90645E-003	3.59960E-001	-1.11589E+000	3.57660E+000	10	...........
	5	0.08	6.58481E-001	5.99767E-003	0.00000E+000	3.94936E-003	3.59960E-001	-1.11708E+000	3.57660E+000	10	...........
	6	0.093333	6.65412E-001	5.99721E-003	0.00000E+000	3.99061E-003	3.59960E-001	-1.12566E+000	3.57660E+000	10	...........
	7	0.106667	6.72298E-001	5.99454E-003	0.00000E+000	4.03012E-003	3.59960E-001	-1.11565E+000	3.57660E+000	10	...........
	8	0.12	6.79020E-001	5.99629E-003	0.00000E+000	4.07161E-003	3.59960E-001	-1.11712E+000	3.57660E+000	10	...........
	9	0.133333	6.85683E-001	5.99579E-003	0.00000E+000	4.11121E-003	3.59960E-001	-1.12562E+000	3.57660E+000	10	...........
	10	0.146667	6.92342E-001	5.99854E-003	0.00000E+000	4.15304E-003	3.59960E-001	-1.11589E+000	3.57660E+000	10	...........
	11	0.16	6.98909E-001	5.99465E-003	0.00000E+000	4.18971E-003	3.59960E-001	-1.11728E+000	3.57660E+000	10	...........
	12	0.173333	7.05400E-001	5.99303E-003	0.00000E+000	4.22748E-003	3.59960E-001	-1.12585E+000	3.57660E+000	10	...........
	13	0.186667	7.11901E-001	5.99450E-003	0.00000E+000	4.26749E-003	3.59960E-001	-1.11581E+000	3.57660E+000	10	...........
	14	0.2	7.18435E-001	5.98875E-003	0.00000E+000	4.30253E-003	3.59960E-001	-1.11737E+000	3.57662E+000	10	...........
	15	0.213333	7.24900E-001	5.99708E-003	0.00000E+000	4.34728E-003	3.59960E-001	-1.12624E+000	3.57680E+000	10	...........
	16	0.226667	7.31312E-001	5.99523E-003	0.00000E+000	4.38438E-003	3.59960E-001	-1.11614E+000	3.57680E+000	10	...........
	17	0.24	7.37683E-001	5.99173E-003	0.00000E+000	4.42000E-003	3.59960E-001	-1.11716E+000	3.57680E+000	10	...........
	18	0.253333	7.44077E-001	6.00111E-003	0.00000E+000	4.46529E-003	3.59960E-001	-1.12597E+000	3.57680E+000	10	...........
	19	0.266667	7.50455E-001	5.99266E-003	0.00000E+000	4.49723E-003	3.59960E-001	-1.11588E+000	3.57680E+000	10	...........
	20	0.28	7.56845E-001	5.99692E-003	0.00000E+000	4.53874E-003	3.59960E-001	-1.11700E+000	3.57680E+000	10	...........
	21	0.293333	7.63149E-001	5.99465E-003	0.00000E+000	4.57481E-003	3.59960E-001	-1.12548E+000	3.57680E+000	10	...........
	22	0.306667	7.69456E-001	5.99289E-003	0.00000E+000	4.61127E-003	3.59960E-001	-1.11544E+000	3.57680E+000	10	...........
	23	0.32	7.75776E-001	5.99198E-003	0.00000E+000	4.64843E-003	3.59960E-001	-1.11652E+000	3.57680E+000	10	...........
	24	0.333333	7.82107E-001	5.99502E-003	0.00000E+000	4.68875E-003	3.59960E-001	-1.12540E+000	3.57680E+000	10	...........
	25	0.346667	7.88411E-001	5.99851E-003	0.00000E+000	4.72929E-003	3.59960E-001	-1.11554E+000	3.57680E+000	10	...........
	26	0.36	7.94774E-001	5.99514E-003	0.00000E+000	4.76478E-003	3.59960E-001	-1.11633E+000	3.57680E+000	10	...........
	27	0.373333	8.01007E-001	5.99528E-003	0.00000E+000	4.80226E-003	3.59960E-001	-1.12503E+000	3.57680E+000	10	...........
	28	0.386667	8.07253E-001	5.99212E-003	0.00000E+000	4.83716E-003	3.59960E-001	-1.11521E+000	3.57680E+000	10	...........
	29	0.4	8.13499E-001	5.99491E-003	0.00000E+000	4.87685E-003	3.59960E-001	-1.11615E+000	3.57680E+000	10	...........
	30	0.413333	8.19780E-001	5.99671E-003	0.00000E+000	4.91598E-003	3.59960E-001	-1.12527E+000	3.57680E+000	10	...........
	31	0.426667	8.25948E-001	5.99812E-003	0.00000E+000	4.95414E-003	3.59960E-001	-1.11540E+000	3.57680E+000	10	...........
	32	0.44	8.32124E-001	5.99210E-003	0.00000E+000	4.98617E-003	3.59960E-001	-1.11607E+000	3.57680E+000	10	...........
	33	0.453333	8.38322E-001	5.99619E-003	0.00000E+000	5.02674E-003	3.59960E-001	-1.12545E+000	3.57680E+000	10	...........
	34	0.466667	8.44524E-001	5.99619E-003	0.00000E+000	5.06393E-003	3.59960E-001	-1.11585E+000	3.57680E+000	10	...........
	35	0.48	8.50735E-001	5.99279E-003	0.00000E+000	5.09828E-003	3.59960E-001	-1.11680E+000	3.57680E+000	10	...........
	36	0.493333	8.56852E-001	5.99711E-003	0.00000E+000	5.13864E-003	3.59960E-001	-1.12604E+000	3.57680E+000	10	...........
	37	0.506667	8.62982E-001	5.99377E-003	0.00000E+000	5.17252E-003	3.59960E-001	-1.11617E+000	3.57680E+000	10	...........
	38	0.52	8.69136E-001	5.99087E-003	0.00000E+000	5.20688E-003	3.59960E-001	-1.11715E+000	3.57680E+000	10	...........
	39	0.533333	8.75237E-001	5.99671E-003	0.00000E+000	5.24854E-003	3.59960E-001	-1.12661E+000	3.57680E+000	10	...........
	40	0.546667	8.81314E-001	5.98872E-003	0.00000E+000	5.27794E-003	3.59960E-001	-1.11671E+000	3.57680E+000	10	...........
	41	0.56	8.87399E-001	5.99365E-003	0.00000E+000	5.31875E-003	3.59960E-001	-1.11703E+000	3.57680E+000	10	...........
	42	0.573333	8.93417E-001	5.99440E-003	0.00000E+000	5.35550E-003	3.59960E-001	-1.12601E+000	3.57680E+000	10	...........
	43	0.586667	8.99474E-001	5.99449E-003	0.00000E+000	5.39189E-003	3.59960E-001	-1.11644E+000	3.57680E+000	10	...........
	44	0.6	9.05470E-001	5.99528E-003	0.00000E+000	5.42855E-003	3.59960E-001	-1.11707E+000	3.57680E+000	10	...........
	45	0.613333	9.11452E-001	5.99722E-003	0.00000E+000	5.46618E-003	3.59960E-001	-1.12618E+000	3.57680E+000	10	...........
	46	0.626667	9.17433E-001	5.99698E-003	0.00000E+000	5.50183E-003	3.59960E-001	-1.11622E+000	3.57680E+000	10	...........
	47	0.64	9.23376E-001	5.99549E-003	0.00000E+000	5.53609E-003	3.59960E-001	-1.11664E+000	3.57680E+000	10	...........
	48	0.653333	9.29260E-001	5.98958E-003	0.00000E+000	5.56588E-003	3.59960E-001	-1.12556E+000	3.57680E+000	10	...........
	49	0.666667	9.35131E-001	5.99276E-003	0.00000E+000	5.60402E-003	3.59960E-001	-1.11596E+000	3.57680E+000	10	...........
	50	0.68	9.40981E-001	5.99526E-003	0.00000E+000	5.64143E-003	3.59960E-001	-1.11599E+000	3.57680E+000	10	...........
	51	0.693333	9.46784E-001	5.99701E-003	0.00000E+000	5.67788E-003	3.59960E-001	-1.12481E+000	3.57680E+000	10	...........
	52	0.706667	9.52545E-001	5.99480E-003	0.00000E+000	5.71032E-003	3.59960E-001	-1.11486E+000	3.57680E+000	10	...........
	53	0.72	9.58259E-001	5.99504E-003	0.00000E+000	5.74480E-003	3.59960E-001	-1.11499E+000	3.57680E+000	10	...........
	54	0.733333	9.63921E-001	5.99256E-003	0.00000E+000	5.77635E-003	3.59960E-001	-1.12398E+000	3.57680E+000	10	...........
	55	0.746667	9.69558E-001	5.99653E-003	0.00000E+000	5.81399E-003	3.59960E-001	-1.11420E+000	3.57680E+000	10	...........
	56	0.76	9.75232E-001	5.99132E-003	0.00000E+000	5.84293E-003	3.59960E-001	-1.11401E+000	3.57680E+000	10	...........
	57	0.773333	9.80798E-001	5.99511E-003	0.00000E+000	5.87999E-003	3.59960E-001	-1.12291E+000	3.57680E+000	10	...........
	58	0.786667	9.86320E-001	5.98932E-003	0.00000E+000	5.90738E-003	3.59960E-001	-1.11317E+000	3.57680E+000	10	...........
	59	0.8	9.91811E-001	5.99314E-003	0.00000E+000	5.94407E-003	3.59960E-001	-1.11323E+000	3.57680E+000	10	...........
	60	0.813333	9.97305E-001	5.99346E-003	0.00000E+000	5.97731E-003	3.59960E-001	-1.12236E+000	3.57680E+000	10	...........
	61	0.815	1.00034E+000	5.98703E-003	0.00000E+000	5.98909E-003	3.59960E-001	-1.10809E+000	3.57680E+000	10	...........
STARTTIMEOFFSET	QUANT	609.713	Start Time Offset (s)