Folder: Tesis/Data/CV_CRGO300517_1/PWRCCD_CRGO300517_1/CHARGE_DISCHARGE (part 20)

File: CHARGE_#39.DTA
EXPLAIN
TAG	PWR800_CHARGE
TITLE	LABEL	PWR Cyclic Charge Discharge (Cell) - Charge Step	Test &Identifier
DATE	LABEL	22-6-2017	Date
TIME	LABEL	15:36:46	Time
NOTES	NOTES	3	&Notes...
	supercap test cell
	0.6mg
	6M KOH
PSTAT	PSTAT	IFC5000-01520	Potentiostat
CAPACITY	QUANT	1.00000E-003	Capacity (A-hr)
CELLTYPE	SELECTOR	1	&Cell Type
WORKINGCONNECTION	SELECTOR	0	&Working Lead
MAXCHARGETIME	VARIABLEANDUNITS	1.00000E+002	s	1.00000E+002	second(s)	Max &Charge Time
CHARGECURRENT	QUANT	6.00000E-003	&Charge Current (A)
VOLTAGEFINISH	TWOPARAM	F	1.00000E-003	3.60000E+003	&Voltage Finish	 I (A) < 	Max Time(s)
SAMPLETIME	QUANT	1.00000E-002	Sa&mple Period (s)
CHARGESTOPAT1	MULTIPARAM	4	1.00000E+000	Charge Stop At &1	Voltage > Limit	V
CHARGESTOPAT2	MULTIPARAM	0	0.00000E+000	Charge Stop At &2	None	N/A
AESBHCSELECTOR	TOGGLE	F	Save Both Half Cells
IRCOMP	TOGGLE	F	IR &Measure
EOC	QUANT	0	Open Circuit (V)
SEQUENCER	TOGGLE	TRUE	Run as Sequence
PSTATMODEL	IQUANT	53	Pstat Model
PSTATSECTION	LABEL	IFC5000-01520	Pstat Section
PSTATSERIALNO	LABEL	01520	Pstat Serial Number
CTRLMODE	IQUANT	0	Control Mode
ELECTROMETER	IQUANT	1	RE=0 or CS=1
IESTAB	IQUANT	0	I/E Stability
CASPEED	IQUANT	4	Control Amp Speed
CONVENTION	IQUANT	1	Current Convention
ICHRANGE	IQUANT	2	Ich Range
ICHRANGEMODE	TOGGLE	T	Ich Auto Range
ICHOFFSETENABLE	TOGGLE	F	Ich Offset Enable
ICHOFFSET	QUANT	0	Ich Offset (V)
ICHFILTER	IQUANT	1	Ich Filter
VCHRANGE	IQUANT	2	Vch Range
VCHRANGEMODE	TOGGLE	T	Vch Auto Range
VCHOFFSETENABLE	TOGGLE	F	Vch Offset Enable
VCHOFFSET	QUANT	0	Vch Offset (V)
VCHFILTER	IQUANT	1	Vch Filter
IERANGELOWERLIMIT	IQUANT	9	I/E Range Lower Limit
IERANGEMODE	TOGGLE	F	I/E AutoRange
IERANGE	IQUANT	10	I/E Range
ACHSELECT	IQUANT	1	Ach Select
ACHRANGE	IQUANT	2	Ach Range
ACHOFFSETENABLE	TOGGLE	F	Ach Offset Enable
ACHOFFSET	QUANT	0	Ach Offset (V)
ACHFILTER	IQUANT	1	Ach Filter
CABLEID	IQUANT	14	Cable ID
DCCALDATE	LABEL	20-10-2016	DC Calibration Date
ACCALDATE	LABEL	12/3/2015	AC Calibration Date
FRAMEWORKVERSION	QUANT	7.01	Framework Version
INSTRUMENTVERSION	LABEL	4.00	Instrument Version
CURVE	TABLE	75
	Pt	T	Vf	Im	Vu	Pwr	Sig	Ach	Temp	IERange	Over
	#	s	V	A	V	W	V	V	deg C	#	bits
	0	0.013333	5.70010E-001	5.99340E-003	0.00000E+000	3.41630E-003	3.59960E-001	-1.02697E+000	3.57720E+000	10	...........
	1	0.026667	5.78057E-001	5.99363E-003	0.00000E+000	3.46466E-003	3.59960E-001	-1.03564E+000	3.57720E+000	10	...........
	2	0.04	5.85500E-001	5.99232E-003	0.00000E+000	3.50850E-003	3.59960E-001	-1.03413E+000	3.57720E+000	10	...........
	3	0.053333	5.92551E-001	5.99528E-003	0.00000E+000	3.55251E-003	3.59960E-001	-1.02675E+000	3.57720E+000	10	...........
	4	0.066667	5.99311E-001	5.99283E-003	0.00000E+000	3.59157E-003	3.59960E-001	-1.03522E+000	3.57720E+000	10	...........
	5	0.08	6.05788E-001	5.99393E-003	0.00000E+000	3.63105E-003	3.59960E-001	-1.03388E+000	3.57722E+000	10	...........
	6	0.093333	6.12171E-001	5.99721E-003	0.00000E+000	3.67132E-003	3.59960E-001	-1.02625E+000	3.57740E+000	10	...........
	7	0.106667	6.18483E-001	5.99310E-003	0.00000E+000	3.70663E-003	3.59960E-001	-1.03494E+000	3.57740E+000	10	...........
	8	0.12	6.24664E-001	5.99607E-003	0.00000E+000	3.74553E-003	3.59960E-001	-1.03378E+000	3.57740E+000	10	...........
	9	0.133333	6.30787E-001	5.99500E-003	0.00000E+000	3.78157E-003	3.59960E-001	-1.02635E+000	3.57740E+000	10	...........
	10	0.146667	6.36821E-001	5.99539E-003	0.00000E+000	3.81799E-003	3.59960E-001	-1.03506E+000	3.57740E+000	10	...........
	11	0.16	6.42861E-001	5.99094E-003	0.00000E+000	3.85134E-003	3.59960E-001	-1.03364E+000	3.57740E+000	10	...........
	12	0.173333	6.48800E-001	5.99187E-003	0.00000E+000	3.88753E-003	3.59960E-001	-1.02597E+000	3.57740E+000	10	...........
	13	0.186667	6.54734E-001	5.99220E-003	0.00000E+000	3.92329E-003	3.59960E-001	-1.03480E+000	3.57740E+000	10	...........
	14	0.2	6.60594E-001	5.99241E-003	0.00000E+000	3.95855E-003	3.59960E-001	-1.03363E+000	3.57740E+000	10	...........
	15	0.213333	6.66504E-001	5.99087E-003	0.00000E+000	3.99294E-003	3.59960E-001	-1.02616E+000	3.57740E+000	10	...........
	16	0.226667	6.72370E-001	5.99588E-003	0.00000E+000	4.03145E-003	3.59960E-001	-1.03466E+000	3.57740E+000	10	...........
	17	0.24	6.78154E-001	5.99822E-003	0.00000E+000	4.06772E-003	3.59960E-001	-1.03337E+000	3.57740E+000	10	...........
	18	0.253333	6.83902E-001	5.99326E-003	0.00000E+000	4.09880E-003	3.59960E-001	-1.02610E+000	3.57740E+000	10	...........
	19	0.266667	6.89672E-001	5.99294E-003	0.00000E+000	4.13316E-003	3.59960E-001	-1.03496E+000	3.57740E+000	10	...........
	20	0.28	6.95450E-001	5.99428E-003	0.00000E+000	4.16872E-003	3.59960E-001	-1.03389E+000	3.57740E+000	10	...........
	21	0.293333	7.01202E-001	5.99286E-003	0.00000E+000	4.20221E-003	3.59960E-001	-1.02588E+000	3.57740E+000	10	...........
	22	0.306667	7.06946E-001	5.99450E-003	0.00000E+000	4.23779E-003	3.59960E-001	-1.03460E+000	3.57740E+000	10	...........
	23	0.32	7.12631E-001	5.99214E-003	0.00000E+000	4.27019E-003	3.59960E-001	-1.03379E+000	3.57740E+000	10	...........
	24	0.333333	7.18407E-001	5.99679E-003	0.00000E+000	4.30813E-003	3.59960E-001	-1.02631E+000	3.57740E+000	10	...........
	25	0.346667	7.24126E-001	5.99671E-003	0.00000E+000	4.34237E-003	3.59960E-001	-1.03493E+000	3.57740E+000	10	...........
	26	0.36	7.29844E-001	5.99421E-003	0.00000E+000	4.37484E-003	3.59960E-001	-1.03382E+000	3.57740E+000	10	...........
	27	0.373333	7.35516E-001	5.99609E-003	0.00000E+000	4.41022E-003	3.59960E-001	-1.02586E+000	3.57740E+000	10	...........
	28	0.386667	7.41260E-001	5.99300E-003	0.00000E+000	4.44237E-003	3.59960E-001	-1.03432E+000	3.57740E+000	10	...........
	29	0.4	7.46965E-001	5.99003E-003	0.00000E+000	4.47434E-003	3.59960E-001	-1.03355E+000	3.57740E+000	10	...........
	30	0.413333	7.52694E-001	5.99739E-003	0.00000E+000	4.51420E-003	3.59960E-001	-1.02562E+000	3.57740E+000	10	...........
	31	0.426667	7.58392E-001	5.99391E-003	0.00000E+000	4.54573E-003	3.59960E-001	-1.03429E+000	3.57740E+000	10	...........
	32	0.44	7.64066E-001	5.99422E-003	0.00000E+000	4.57998E-003	3.59960E-001	-1.03333E+000	3.57740E+000	10	...........
	33	0.453333	7.69773E-001	5.99185E-003	0.00000E+000	4.61236E-003	3.59960E-001	-1.02583E+000	3.57740E+000	10	...........
	34	0.466667	7.75472E-001	5.99271E-003	0.00000E+000	4.64718E-003	3.59960E-001	-1.03435E+000	3.57740E+000	10	...........
	35	0.48	7.81167E-001	5.99542E-003	0.00000E+000	4.68342E-003	3.59960E-001	-1.03363E+000	3.57740E+000	10	...........
	36	0.493333	7.86824E-001	5.99157E-003	0.00000E+000	4.71431E-003	3.59960E-001	-1.02574E+000	3.57740E+000	10	...........
	37	0.506667	7.92499E-001	5.99431E-003	0.00000E+000	4.75048E-003	3.59960E-001	-1.03398E+000	3.57740E+000	10	...........
	38	0.52	7.98208E-001	5.99361E-003	0.00000E+000	4.78415E-003	3.59960E-001	-1.03338E+000	3.57740E+000	10	...........
	39	0.533333	8.03849E-001	5.99205E-003	0.00000E+000	4.81670E-003	3.59960E-001	-1.02576E+000	3.57740E+000	10	...........
	40	0.546667	8.09549E-001	5.99115E-003	0.00000E+000	4.85013E-003	3.59960E-001	-1.03402E+000	3.57740E+000	10	...........
	41	0.56	8.15254E-001	5.99337E-003	0.00000E+000	4.88613E-003	3.59960E-001	-1.03328E+000	3.57740E+000	10	...........
	42	0.573333	8.20948E-001	5.99256E-003	0.00000E+000	4.91958E-003	3.59960E-001	-1.02557E+000	3.57740E+000	10	...........
[...]
	45	0.613333	8.37943E-001	5.99355E-003	0.00000E+000	5.02225E-003	3.59960E-001	-1.02594E+000	3.57740E+000	10	...........
	46	0.626667	8.43660E-001	5.99225E-003	0.00000E+000	5.05542E-003	3.59960E-001	-1.03402E+000	3.57740E+000	10	...........
	47	0.64	8.49343E-001	5.98957E-003	0.00000E+000	5.08720E-003	3.59960E-001	-1.03355E+000	3.57740E+000	10	...........
	48	0.653333	8.55003E-001	5.99408E-003	0.00000E+000	5.12496E-003	3.59960E-001	-1.02577E+000	3.57740E+000	10	...........
	49	0.666667	8.60699E-001	5.99551E-003	0.00000E+000	5.16033E-003	3.59960E-001	-1.03420E+000	3.57740E+000	10	...........
	50	0.68	8.66347E-001	5.99499E-003	0.00000E+000	5.19374E-003	3.59960E-001	-1.03352E+000	3.57740E+000	10	...........
	51	0.693333	8.72033E-001	5.99385E-003	0.00000E+000	5.22684E-003	3.59960E-001	-1.02528E+000	3.57740E+000	10	...........
	52	0.706667	8.77695E-001	5.99331E-003	0.00000E+000	5.26030E-003	3.59960E-001	-1.03344E+000	3.57740E+000	10	...........
	53	0.72	8.83338E-001	5.99295E-003	0.00000E+000	5.29380E-003	3.59960E-001	-1.03322E+000	3.57740E+000	10	...........
	54	0.733333	8.88983E-001	5.99353E-003	0.00000E+000	5.32815E-003	3.59960E-001	-1.02535E+000	3.57740E+000	10	...........
	55	0.746667	8.94589E-001	5.99663E-003	0.00000E+000	5.36452E-003	3.59960E-001	-1.03363E+000	3.57740E+000	10	...........
	56	0.76	9.00221E-001	5.99712E-003	0.00000E+000	5.39873E-003	3.59960E-001	-1.03316E+000	3.57740E+000	10	...........
	57	0.773333	9.05794E-001	5.99758E-003	0.00000E+000	5.43257E-003	3.59960E-001	-1.02503E+000	3.57740E+000	10	...........
	58	0.786667	9.11399E-001	5.99632E-003	0.00000E+000	5.46503E-003	3.59960E-001	-1.03341E+000	3.57740E+000	10	...........
	59	0.8	9.17021E-001	5.99569E-003	0.00000E+000	5.49817E-003	3.59960E-001	-1.03331E+000	3.57740E+000	10	...........
	60	0.813333	9.22669E-001	5.99203E-003	0.00000E+000	5.52866E-003	3.59960E-001	-1.02526E+000	3.57740E+000	10	...........
	61	0.826667	9.28217E-001	5.99895E-003	0.00000E+000	5.56833E-003	3.59960E-001	-1.03314E+000	3.57740E+000	10	...........
	62	0.84	9.33698E-001	5.99179E-003	0.00000E+000	5.59452E-003	3.59960E-001	-1.03306E+000	3.57740E+000	10	...........
	63	0.853333	9.39243E-001	5.99496E-003	0.00000E+000	5.63072E-003	3.59960E-001	-1.02519E+000	3.57740E+000	10	...........
	64	0.866667	9.44769E-001	5.99534E-003	0.00000E+000	5.66420E-003	3.59960E-001	-1.03342E+000	3.57740E+000	10	...........
	65	0.88	9.50276E-001	5.99477E-003	0.00000E+000	5.69669E-003	3.59960E-001	-1.03316E+000	3.57740E+000	10	...........
	66	0.893333	9.55746E-001	5.99712E-003	0.00000E+000	5.73172E-003	3.59960E-001	-1.02516E+000	3.57740E+000	10	...........
	67	0.906667	9.61215E-001	5.99087E-003	0.00000E+000	5.75851E-003	3.59960E-001	-1.03339E+000	3.57740E+000	10	...........
	68	0.92	9.66644E-001	5.99312E-003	0.00000E+000	5.79322E-003	3.59960E-001	-1.03359E+000	3.57740E+000	10	...........
	69	0.933333	9.72051E-001	5.99761E-003	0.00000E+000	5.82998E-003	3.59960E-001	-1.02540E+000	3.57740E+000	10	...........
	70	0.946667	9.77429E-001	5.99062E-003	0.00000E+000	5.85541E-003	3.59960E-001	-1.03334E+000	3.57740E+000	10	...........
	71	0.96	9.82768E-001	5.99124E-003	0.00000E+000	5.88799E-003	3.59960E-001	-1.03347E+000	3.57740E+000	10	...........
	72	0.97333	9.88063E-001	5.99069E-003	0.00000E+000	5.91918E-003	3.59960E-001	-1.02516E+000	3.57740E+000	10	...........
	73	0.98667	9.93339E-001	5.99442E-003	0.00000E+000	5.95449E-003	3.59960E-001	-1.03321E+000	3.57740E+000	10	...........
	74	0.99833	9.98298E-001	5.99112E-003	0.00000E+000	5.98092E-003	3.59960E-001	-1.03272E+000	3.57740E+000	10	...........
STARTTIMEOFFSET	QUANT	78.89999	Start Time Offset (s)

File: CHARGE_#40.DTA
EXPLAIN
TAG	PWR800_CHARGE
TITLE	LABEL	PWR Cyclic Charge Discharge (Cell) - Charge Step	Test &Identifier
DATE	LABEL	22-6-2017	Date
TIME	LABEL	15:36:48	Time
NOTES	NOTES	3	&Notes...
	supercap test cell
	0.6mg
	6M KOH
PSTAT	PSTAT	IFC5000-01520	Potentiostat
CAPACITY	QUANT	1.00000E-003	Capacity (A-hr)
CELLTYPE	SELECTOR	1	&Cell Type
WORKINGCONNECTION	SELECTOR	0	&Working Lead
MAXCHARGETIME	VARIABLEANDUNITS	1.00000E+002	s	1.00000E+002	second(s)	Max &Charge Time
CHARGECURRENT	QUANT	6.00000E-003	&Charge Current (A)
VOLTAGEFINISH	TWOPARAM	F	1.00000E-003	3.60000E+003	&Voltage Finish	 I (A) < 	Max Time(s)
SAMPLETIME	QUANT	1.00000E-002	Sa&mple Period (s)
CHARGESTOPAT1	MULTIPARAM	4	1.00000E+000	Charge Stop At &1	Voltage > Limit	V
CHARGESTOPAT2	MULTIPARAM	0	0.00000E+000	Charge Stop At &2	None	N/A
AESBHCSELECTOR	TOGGLE	F	Save Both Half Cells
IRCOMP	TOGGLE	F	IR &Measure
EOC	QUANT	0	Open Circuit (V)
SEQUENCER	TOGGLE	TRUE	Run as Sequence
PSTATMODEL	IQUANT	53	Pstat Model
PSTATSECTION	LABEL	IFC5000-01520	Pstat Section
PSTATSERIALNO	LABEL	01520	Pstat Serial Number
CTRLMODE	IQUANT	0	Control Mode
ELECTROMETER	IQUANT	1	RE=0 or CS=1
IESTAB	IQUANT	0	I/E Stability
CASPEED	IQUANT	4	Control Amp Speed
CONVENTION	IQUANT	1	Current Convention
ICHRANGE	IQUANT	2	Ich Range
ICHRANGEMODE	TOGGLE	T	Ich Auto Range
ICHOFFSETENABLE	TOGGLE	F	Ich Offset Enable
ICHOFFSET	QUANT	0	Ich Offset (V)
ICHFILTER	IQUANT	1	Ich Filter
VCHRANGE	IQUANT	2	Vch Range
VCHRANGEMODE	TOGGLE	T	Vch Auto Range
VCHOFFSETENABLE	TOGGLE	F	Vch Offset Enable
VCHOFFSET	QUANT	0	Vch Offset (V)
VCHFILTER	IQUANT	1	Vch Filter
IERANGELOWERLIMIT	IQUANT	9	I/E Range Lower Limit
IERANGEMODE	TOGGLE	F	I/E AutoRange
IERANGE	IQUANT	10	I/E Range
ACHSELECT	IQUANT	1	Ach Select
ACHRANGE	IQUANT	2	Ach Range
ACHOFFSETENABLE	TOGGLE	F	Ach Offset Enable
ACHOFFSET	QUANT	0	Ach Offset (V)
ACHFILTER	IQUANT	1	Ach Filter
CABLEID	IQUANT	14	Cable ID
DCCALDATE	LABEL	20-10-2016	DC Calibration Date
ACCALDATE	LABEL	12/3/2015	AC Calibration Date
FRAMEWORKVERSION	QUANT	7.01	Framework Version
INSTRUMENTVERSION	LABEL	4.00	Instrument Version
CURVE	TABLE	75
	Pt	T	Vf	Im	Vu	Pwr	Sig	Ach	Temp	IERange	Over
	#	s	V	A	V	W	V	V	deg C	#	bits
	0	0.013333	5.70619E-001	5.99069E-003	0.00000E+000	3.41840E-003	3.59960E-001	-1.03908E+000	3.57860E+000	10	...........
	1	0.026667	5.78758E-001	5.99479E-003	0.00000E+000	3.46954E-003	3.59960E-001	-1.03202E+000	3.57860E+000	10	...........
	2	0.04	5.86112E-001	5.99312E-003	0.00000E+000	3.51264E-003	3.59960E-001	-1.02732E+000	3.57860E+000	10	...........
	3	0.053333	5.93124E-001	5.99669E-003	0.00000E+000	3.55678E-003	3.59960E-001	-1.03890E+000	3.57860E+000	10	...........
	4	0.066667	5.99811E-001	5.99547E-003	0.00000E+000	3.59615E-003	3.59960E-001	-1.03164E+000	3.57860E+000	10	...........
	5	0.08	6.06343E-001	5.99396E-003	0.00000E+000	3.63440E-003	3.59960E-001	-1.02722E+000	3.57860E+000	10	...........
	6	0.093333	6.12770E-001	5.99186E-003	0.00000E+000	3.67163E-003	3.59960E-001	-1.03921E+000	3.57860E+000	10	...........
	7	0.106667	6.19102E-001	5.99553E-003	0.00000E+000	3.71185E-003	3.59960E-001	-1.03200E+000	3.57860E+000	10	...........
	8	0.12	6.25250E-001	5.99164E-003	0.00000E+000	3.74628E-003	3.59960E-001	-1.02717E+000	3.57860E+000	10	...........
	9	0.133333	6.31379E-001	5.99496E-003	0.00000E+000	3.78509E-003	3.59960E-001	-1.03864E+000	3.57860E+000	10	...........
	10	0.146667	6.37411E-001	5.99368E-003	0.00000E+000	3.82044E-003	3.59960E-001	-1.03172E+000	3.57860E+000	10	...........
	11	0.16	6.43443E-001	5.99626E-003	0.00000E+000	3.85826E-003	3.59960E-001	-1.02715E+000	3.57860E+000	10	...........
	12	0.173333	6.49383E-001	5.99230E-003	0.00000E+000	3.89130E-003	3.59960E-001	-1.03829E+000	3.57860E+000	10	...........
	13	0.186667	6.55307E-001	5.99286E-003	0.00000E+000	3.92716E-003	3.59960E-001	-1.03122E+000	3.57860E+000	10	...........
	14	0.2	6.61191E-001	5.99786E-003	0.00000E+000	3.96573E-003	3.59960E-001	-1.02649E+000	3.57860E+000	10	...........
	15	0.213333	6.67056E-001	5.99438E-003	0.00000E+000	3.99858E-003	3.59960E-001	-1.03810E+000	3.57860E+000	10	...........
	16	0.226667	6.72889E-001	5.99539E-003	0.00000E+000	4.03423E-003	3.59960E-001	-1.03157E+000	3.57860E+000	10	...........
	17	0.24	6.78706E-001	5.99490E-003	0.00000E+000	4.06878E-003	3.59960E-001	-1.02666E+000	3.57860E+000	10	...........
	18	0.253333	6.84491E-001	5.99108E-003	0.00000E+000	4.10084E-003	3.59960E-001	-1.03797E+000	3.57860E+000	10	...........
	19	0.266667	6.90288E-001	5.98886E-003	0.00000E+000	4.13404E-003	3.59960E-001	-1.03133E+000	3.57860E+000	10	...........
	20	0.28	6.96060E-001	5.99246E-003	0.00000E+000	4.17111E-003	3.59960E-001	-1.02649E+000	3.57860E+000	10	...........
	21	0.293333	7.01801E-001	5.99321E-003	0.00000E+000	4.20604E-003	3.59960E-001	-1.03839E+000	3.57860E+000	10	...........
	22	0.306667	7.07492E-001	5.99576E-003	0.00000E+000	4.24195E-003	3.59960E-001	-1.03135E+000	3.57860E+000	10	...........
	23	0.32	7.13212E-001	5.99645E-003	0.00000E+000	4.27674E-003	3.59960E-001	-1.02640E+000	3.57746E+000	10	...........
	24	0.333333	7.18983E-001	5.99358E-003	0.00000E+000	4.30928E-003	3.59960E-001	-1.03784E+000	3.57730E+000	10	...........
	25	0.346667	7.24716E-001	5.99435E-003	0.00000E+000	4.34420E-003	3.59960E-001	-1.03169E+000	3.57730E+000	10	...........
	26	0.36	7.30402E-001	5.99285E-003	0.00000E+000	4.37719E-003	3.59960E-001	-1.02663E+000	3.57730E+000	10	...........
	27	0.373333	7.36053E-001	5.99305E-003	0.00000E+000	4.41120E-003	3.59960E-001	-1.03802E+000	3.57730E+000	10	...........
	28	0.386667	7.41757E-001	5.99391E-003	0.00000E+000	4.44602E-003	3.59960E-001	-1.03150E+000	3.57730E+000	10	...........
	29	0.4	7.47503E-001	5.99359E-003	0.00000E+000	4.48023E-003	3.59960E-001	-1.02646E+000	3.57730E+000	10	...........
	30	0.413333	7.53243E-001	5.99393E-003	0.00000E+000	4.51488E-003	3.59960E-001	-1.03803E+000	3.57730E+000	10	...........
	31	0.426667	7.58927E-001	5.99362E-003	0.00000E+000	4.54873E-003	3.59960E-001	-1.03187E+000	3.57730E+000	10	...........
	32	0.44	7.64577E-001	5.99370E-003	0.00000E+000	4.58264E-003	3.59960E-001	-1.02682E+000	3.57730E+000	10	...........
	33	0.453333	7.70264E-001	5.99427E-003	0.00000E+000	4.61717E-003	3.59960E-001	-1.03803E+000	3.57730E+000	10	...........
	34	0.466667	7.76014E-001	5.99510E-003	0.00000E+000	4.65228E-003	3.59960E-001	-1.03179E+000	3.57730E+000	10	...........
	35	0.48	7.81722E-001	5.99451E-003	0.00000E+000	4.68604E-003	3.59960E-001	-1.02683E+000	3.57730E+000	10	...........
	36	0.493333	7.87379E-001	5.99015E-003	0.00000E+000	4.71652E-003	3.59960E-001	-1.03775E+000	3.57730E+000	10	...........
	37	0.506667	7.93057E-001	5.99370E-003	0.00000E+000	4.75335E-003	3.59960E-001	-1.03175E+000	3.57730E+000	10	...........
	38	0.52	7.98766E-001	5.99308E-003	0.00000E+000	4.78707E-003	3.59960E-001	-1.02640E+000	3.57730E+000	10	...........
	39	0.533333	8.04448E-001	5.99446E-003	0.00000E+000	4.82223E-003	3.59960E-001	-1.03768E+000	3.57730E+000	10	...........
	40	0.546667	8.10131E-001	5.99498E-003	0.00000E+000	4.85672E-003	3.59960E-001	-1.03172E+000	3.57730E+000	10	...........
	41	0.56	8.15842E-001	5.99494E-003	0.00000E+000	4.89092E-003	3.59960E-001	-1.02683E+000	3.57730E+000	10	...........
	42	0.573333	8.21559E-001	5.99143E-003	0.00000E+000	4.92232E-003	3.59960E-001	-1.03773E+000	3.57730E+000	10	...........
[...]
	45	0.613333	8.38587E-001	5.99619E-003	0.00000E+000	5.02833E-003	3.59960E-001	-1.03777E+000	3.57730E+000	10	...........
	46	0.626667	8.44236E-001	5.99742E-003	0.00000E+000	5.06324E-003	3.59960E-001	-1.03195E+000	3.57730E+000	10	...........
	47	0.64	8.49915E-001	5.99410E-003	0.00000E+000	5.09448E-003	3.59960E-001	-1.02666E+000	3.57730E+000	10	...........
	48	0.653333	8.55592E-001	5.99418E-003	0.00000E+000	5.12857E-003	3.59960E-001	-1.03727E+000	3.57730E+000	10	...........
	49	0.666667	8.61244E-001	5.99532E-003	0.00000E+000	5.16344E-003	3.59960E-001	-1.03164E+000	3.57730E+000	10	...........
	50	0.68	8.66910E-001	5.99410E-003	0.00000E+000	5.19635E-003	3.59960E-001	-1.02665E+000	3.57730E+000	10	...........
	51	0.693333	8.72578E-001	5.99417E-003	0.00000E+000	5.23038E-003	3.59960E-001	-1.03751E+000	3.57730E+000	10	...........
	52	0.706667	8.78268E-001	5.99443E-003	0.00000E+000	5.26471E-003	3.59960E-001	-1.03179E+000	3.57730E+000	10	...........
	53	0.72	8.83911E-001	5.99396E-003	0.00000E+000	5.29813E-003	3.59960E-001	-1.02659E+000	3.57730E+000	10	...........
	54	0.733333	8.89562E-001	5.99540E-003	0.00000E+000	5.33328E-003	3.59960E-001	-1.03750E+000	3.57730E+000	10	...........
	55	0.746667	8.95176E-001	5.99738E-003	0.00000E+000	5.36871E-003	3.59960E-001	-1.03199E+000	3.57730E+000	10	...........
	56	0.76	9.00796E-001	5.99130E-003	0.00000E+000	5.39694E-003	3.59960E-001	-1.02670E+000	3.57730E+000	10	...........
	57	0.773333	9.06404E-001	5.99228E-003	0.00000E+000	5.43143E-003	3.59960E-001	-1.03740E+000	3.57730E+000	10	...........
	58	0.786667	9.12015E-001	5.99238E-003	0.00000E+000	5.46514E-003	3.59960E-001	-1.03184E+000	3.57730E+000	10	...........
	59	0.8	9.17605E-001	5.99641E-003	0.00000E+000	5.50233E-003	3.59960E-001	-1.02630E+000	3.57730E+000	10	...........
	60	0.813333	9.23257E-001	5.99414E-003	0.00000E+000	5.53413E-003	3.59960E-001	-1.03698E+000	3.57730E+000	10	...........
	61	0.826667	9.28809E-001	5.99237E-003	0.00000E+000	5.56577E-003	3.59960E-001	-1.03160E+000	3.57730E+000	10	...........
	62	0.84	9.34352E-001	5.99126E-003	0.00000E+000	5.59794E-003	3.59960E-001	-1.02610E+000	3.57730E+000	10	...........
	63	0.853333	9.39840E-001	5.99305E-003	0.00000E+000	5.63251E-003	3.59960E-001	-1.03681E+000	3.57730E+000	10	...........
	64	0.866667	9.45349E-001	5.99445E-003	0.00000E+000	5.66684E-003	3.59960E-001	-1.03150E+000	3.57730E+000	10	...........
	65	0.88	9.50868E-001	5.99346E-003	0.00000E+000	5.69899E-003	3.59960E-001	-1.02599E+000	3.57730E+000	10	...........
	66	0.893333	9.56349E-001	5.99895E-003	0.00000E+000	5.73709E-003	3.59960E-001	-1.03697E+000	3.57730E+000	10	...........
	67	0.906667	9.61772E-001	5.99293E-003	0.00000E+000	5.76383E-003	3.59960E-001	-1.03175E+000	3.57730E+000	10	...........
	68	0.92	9.67188E-001	5.99458E-003	0.00000E+000	5.79789E-003	3.59960E-001	-1.02610E+000	3.57730E+000	10	...........
	69	0.933333	9.72615E-001	5.99333E-003	0.00000E+000	5.82921E-003	3.59960E-001	-1.03662E+000	3.57730E+000	10	...........
	70	0.946667	9.78006E-001	5.99352E-003	0.00000E+000	5.86170E-003	3.59960E-001	-1.03175E+000	3.57730E+000	10	...........
	71	0.96	9.83335E-001	5.99831E-003	0.00000E+000	5.89835E-003	3.59960E-001	-1.02609E+000	3.57730E+000	10	...........
	72	0.97333	9.88655E-001	5.99386E-003	0.00000E+000	5.92586E-003	3.59960E-001	-1.03695E+000	3.57730E+000	10	...........
	73	0.98667	9.93947E-001	5.99566E-003	0.00000E+000	5.95937E-003	3.59960E-001	-1.03170E+000	3.57730E+000	10	...........
	74	0.99667	9.98562E-001	5.99600E-003	0.00000E+000	5.98738E-003	3.59960E-001	-1.02477E+000	3.57730E+000	10	...........
STARTTIMEOFFSET	QUANT	80.88166	Start Time Offset (s)