Folder: Tesis/Data/CV_CRGO300517_1/PWRCCD_CRGO300517_1/CHARGE_DISCHARGE (part 90)

File: CHARGE_#179.DTA
EXPLAIN
TAG	PWR800_CHARGE
TITLE	LABEL	PWR Cyclic Charge Discharge (Cell) - Charge Step	Test &Identifier
DATE	LABEL	22-6-2017	Date
TIME	LABEL	15:42:55	Time
NOTES	NOTES	3	&Notes...
	supercap test cell
	0.6mg
	6M KOH
PSTAT	PSTAT	IFC5000-01520	Potentiostat
CAPACITY	QUANT	1.00000E-003	Capacity (A-hr)
CELLTYPE	SELECTOR	1	&Cell Type
WORKINGCONNECTION	SELECTOR	0	&Working Lead
MAXCHARGETIME	VARIABLEANDUNITS	1.00000E+002	s	1.00000E+002	second(s)	Max &Charge Time
CHARGECURRENT	QUANT	6.00000E-003	&Charge Current (A)
VOLTAGEFINISH	TWOPARAM	F	1.00000E-003	3.60000E+003	&Voltage Finish	 I (A) < 	Max Time(s)
SAMPLETIME	QUANT	1.00000E-002	Sa&mple Period (s)
CHARGESTOPAT1	MULTIPARAM	4	1.00000E+000	Charge Stop At &1	Voltage > Limit	V
CHARGESTOPAT2	MULTIPARAM	0	0.00000E+000	Charge Stop At &2	None	N/A
AESBHCSELECTOR	TOGGLE	F	Save Both Half Cells
IRCOMP	TOGGLE	F	IR &Measure
EOC	QUANT	0	Open Circuit (V)
SEQUENCER	TOGGLE	TRUE	Run as Sequence
PSTATMODEL	IQUANT	53	Pstat Model
PSTATSECTION	LABEL	IFC5000-01520	Pstat Section
PSTATSERIALNO	LABEL	01520	Pstat Serial Number
CTRLMODE	IQUANT	0	Control Mode
ELECTROMETER	IQUANT	1	RE=0 or CS=1
IESTAB	IQUANT	0	I/E Stability
CASPEED	IQUANT	4	Control Amp Speed
CONVENTION	IQUANT	1	Current Convention
ICHRANGE	IQUANT	2	Ich Range
ICHRANGEMODE	TOGGLE	T	Ich Auto Range
ICHOFFSETENABLE	TOGGLE	F	Ich Offset Enable
ICHOFFSET	QUANT	0	Ich Offset (V)
ICHFILTER	IQUANT	1	Ich Filter
VCHRANGE	IQUANT	2	Vch Range
VCHRANGEMODE	TOGGLE	T	Vch Auto Range
VCHOFFSETENABLE	TOGGLE	F	Vch Offset Enable
VCHOFFSET	QUANT	0	Vch Offset (V)
VCHFILTER	IQUANT	1	Vch Filter
IERANGELOWERLIMIT	IQUANT	9	I/E Range Lower Limit
IERANGEMODE	TOGGLE	F	I/E AutoRange
IERANGE	IQUANT	10	I/E Range
ACHSELECT	IQUANT	1	Ach Select
ACHRANGE	IQUANT	2	Ach Range
ACHOFFSETENABLE	TOGGLE	F	Ach Offset Enable
ACHOFFSET	QUANT	0	Ach Offset (V)
ACHFILTER	IQUANT	1	Ach Filter
CABLEID	IQUANT	14	Cable ID
DCCALDATE	LABEL	20-10-2016	DC Calibration Date
ACCALDATE	LABEL	12/3/2015	AC Calibration Date
FRAMEWORKVERSION	QUANT	7.01	Framework Version
INSTRUMENTVERSION	LABEL	4.00	Instrument Version
CURVE	TABLE	66
	Pt	T	Vf	Im	Vu	Pwr	Sig	Ach	Temp	IERange	Over
	#	s	V	A	V	W	V	V	deg C	#	bits
	0	0.013333	6.02698E-001	5.99280E-003	0.00000E+000	3.61185E-003	3.59960E-001	-1.08269E+000	3.57820E+000	10	...........
	1	0.026667	6.11166E-001	5.99160E-003	0.00000E+000	3.66187E-003	3.59960E-001	-1.09299E+000	3.57820E+000	10	...........
	2	0.04	6.18937E-001	5.99270E-003	0.00000E+000	3.70910E-003	3.59960E-001	-1.08327E+000	3.57820E+000	10	...........
	3	0.053333	6.26218E-001	5.98938E-003	0.00000E+000	3.75066E-003	3.59960E-001	-1.08233E+000	3.57820E+000	10	...........
	4	0.066667	6.33278E-001	5.99564E-003	0.00000E+000	3.79691E-003	3.59960E-001	-1.09256E+000	3.57820E+000	10	...........
	5	0.08	6.40150E-001	5.99631E-003	0.00000E+000	3.83853E-003	3.59960E-001	-1.08286E+000	3.57820E+000	10	...........
	6	0.093333	6.46908E-001	5.99624E-003	0.00000E+000	3.87902E-003	3.59960E-001	-1.08221E+000	3.57820E+000	10	...........
	7	0.106667	6.53536E-001	5.99027E-003	0.00000E+000	3.91485E-003	3.59960E-001	-1.09263E+000	3.57820E+000	10	...........
	8	0.12	6.60035E-001	5.99636E-003	0.00000E+000	3.95780E-003	3.59960E-001	-1.08276E+000	3.57820E+000	10	...........
	9	0.133333	6.66488E-001	5.99716E-003	0.00000E+000	3.99704E-003	3.59960E-001	-1.08237E+000	3.57820E+000	10	...........
	10	0.146667	6.72903E-001	5.99481E-003	0.00000E+000	4.03393E-003	3.59960E-001	-1.09247E+000	3.57820E+000	10	...........
	11	0.16	6.79250E-001	5.99136E-003	0.00000E+000	4.06963E-003	3.59960E-001	-1.08279E+000	3.57820E+000	10	...........
	12	0.173333	6.85524E-001	5.99378E-003	0.00000E+000	4.10888E-003	3.59960E-001	-1.08210E+000	3.57820E+000	10	...........
	13	0.186667	6.91816E-001	5.99045E-003	0.00000E+000	4.14429E-003	3.59960E-001	-1.09261E+000	3.57820E+000	10	...........
	14	0.2	6.98046E-001	5.99359E-003	0.00000E+000	4.18380E-003	3.59960E-001	-1.08251E+000	3.57820E+000	10	...........
	15	0.213333	7.04287E-001	5.99405E-003	0.00000E+000	4.22153E-003	3.59960E-001	-1.08200E+000	3.57820E+000	10	...........
	16	0.226667	7.10438E-001	5.99076E-003	0.00000E+000	4.25606E-003	3.59960E-001	-1.09236E+000	3.57820E+000	10	...........
	17	0.24	7.16660E-001	5.99611E-003	0.00000E+000	4.29717E-003	3.59960E-001	-1.08279E+000	3.57820E+000	10	...........
	18	0.253333	7.22852E-001	5.99280E-003	0.00000E+000	4.33190E-003	3.59960E-001	-1.08218E+000	3.57820E+000	10	...........
	19	0.266667	7.29009E-001	5.99353E-003	0.00000E+000	4.36934E-003	3.59960E-001	-1.09243E+000	3.57820E+000	10	...........
	20	0.28	7.35102E-001	5.99297E-003	0.00000E+000	4.40544E-003	3.59960E-001	-1.08276E+000	3.57820E+000	10	...........
	21	0.293333	7.41285E-001	5.99523E-003	0.00000E+000	4.44417E-003	3.59960E-001	-1.08207E+000	3.57820E+000	10	...........
	22	0.306667	7.47397E-001	5.99331E-003	0.00000E+000	4.47938E-003	3.59960E-001	-1.09239E+000	3.57820E+000	10	...........
	23	0.32	7.53510E-001	5.99736E-003	0.00000E+000	4.51907E-003	3.59960E-001	-1.08296E+000	3.57820E+000	10	...........
	24	0.333333	7.59623E-001	5.99562E-003	0.00000E+000	4.55441E-003	3.59960E-001	-1.08215E+000	3.57820E+000	10	...........
	25	0.346667	7.65709E-001	5.98982E-003	0.00000E+000	4.58645E-003	3.59960E-001	-1.09222E+000	3.57820E+000	10	...........
	26	0.36	7.71798E-001	5.99249E-003	0.00000E+000	4.62499E-003	3.59960E-001	-1.08249E+000	3.57820E+000	10	...........
	27	0.373333	7.77873E-001	5.99666E-003	0.00000E+000	4.66464E-003	3.59960E-001	-1.08181E+000	3.57820E+000	10	...........
	28	0.386667	7.83982E-001	5.99469E-003	0.00000E+000	4.69973E-003	3.59960E-001	-1.09208E+000	3.57820E+000	10	...........
	29	0.4	7.90056E-001	5.99405E-003	0.00000E+000	4.73564E-003	3.59960E-001	-1.08213E+000	3.57820E+000	10	...........
	30	0.413333	7.96132E-001	5.99653E-003	0.00000E+000	4.77404E-003	3.59960E-001	-1.08141E+000	3.57820E+000	10	...........
	31	0.426667	8.02138E-001	5.99206E-003	0.00000E+000	4.80646E-003	3.59960E-001	-1.09184E+000	3.57820E+000	10	...........
	32	0.44	8.08199E-001	5.99962E-003	0.00000E+000	4.84889E-003	3.59960E-001	-1.08209E+000	3.57820E+000	10	...........
	33	0.453333	8.14190E-001	5.99706E-003	0.00000E+000	4.88274E-003	3.59960E-001	-1.08159E+000	3.57820E+000	10	...........
	34	0.466667	8.20284E-001	5.99358E-003	0.00000E+000	4.91644E-003	3.59960E-001	-1.09185E+000	3.57820E+000	10	...........
	35	0.48	8.26313E-001	5.99540E-003	0.00000E+000	4.95408E-003	3.59960E-001	-1.08208E+000	3.57820E+000	10	...........
	36	0.493333	8.32304E-001	5.98762E-003	0.00000E+000	4.98352E-003	3.59960E-001	-1.08128E+000	3.57820E+000	10	...........
	37	0.506667	8.38318E-001	5.99083E-003	0.00000E+000	5.02222E-003	3.59960E-001	-1.09189E+000	3.57820E+000	10	...........
	38	0.52	8.44318E-001	5.99336E-003	0.00000E+000	5.06030E-003	3.59960E-001	-1.08220E+000	3.57820E+000	10	...........
	39	0.533333	8.50297E-001	5.99590E-003	0.00000E+000	5.09830E-003	3.59960E-001	-1.08128E+000	3.57820E+000	10	...........
	40	0.546667	8.56285E-001	5.99258E-003	0.00000E+000	5.13136E-003	3.59960E-001	-1.09160E+000	3.57820E+000	10	...........
	41	0.56	8.62253E-001	5.99187E-003	0.00000E+000	5.16651E-003	3.59960E-001	-1.08189E+000	3.57820E+000	10	...........
	42	0.573333	8.68234E-001	5.99336E-003	0.00000E+000	5.20364E-003	3.59960E-001	-1.08156E+000	3.57820E+000	10	...........
	43	0.586667	8.74177E-001	5.99059E-003	0.00000E+000	5.23684E-003	3.59960E-001	-1.09198E+000	3.57820E+000	10	...........
	44	0.6	8.80120E-001	5.99219E-003	0.00000E+000	5.27384E-003	3.59960E-001	-1.08204E+000	3.57820E+000	10	...........
	45	0.613333	8.86027E-001	5.99224E-003	0.00000E+000	5.30928E-003	3.59960E-001	-1.08136E+000	3.57820E+000	10	...........
	46	0.626667	8.91908E-001	5.99416E-003	0.00000E+000	5.34623E-003	3.59960E-001	-1.09195E+000	3.57820E+000	10	...........
	47	0.64	8.97806E-001	5.99417E-003	0.00000E+000	5.38160E-003	3.59960E-001	-1.08240E+000	3.57820E+000	10	...........
	48	0.653333	9.03636E-001	5.99610E-003	0.00000E+000	5.41829E-003	3.59960E-001	-1.08150E+000	3.57820E+000	10	...........
	49	0.666667	9.09470E-001	5.99188E-003	0.00000E+000	5.44944E-003	3.59960E-001	-1.09166E+000	3.57820E+000	10	...........
	50	0.68	9.15291E-001	6.00131E-003	0.00000E+000	5.49295E-003	3.59960E-001	-1.08195E+000	3.57820E+000	10	...........
	51	0.693333	9.21146E-001	5.99295E-003	0.00000E+000	5.52038E-003	3.59960E-001	-1.08088E+000	3.57820E+000	10	...........
	52	0.706667	9.26946E-001	5.99659E-003	0.00000E+000	5.55851E-003	3.59960E-001	-1.09141E+000	3.57820E+000	10	...........
	53	0.72	9.32693E-001	5.99362E-003	0.00000E+000	5.59021E-003	3.59960E-001	-1.08182E+000	3.57820E+000	10	...........
	54	0.733333	9.38419E-001	5.99905E-003	0.00000E+000	5.62962E-003	3.59960E-001	-1.08093E+000	3.57820E+000	10	...........
	55	0.746667	9.44112E-001	5.99489E-003	0.00000E+000	5.65984E-003	3.59960E-001	-1.09116E+000	3.57820E+000	10	...........
	56	0.76	9.49828E-001	5.99591E-003	0.00000E+000	5.69508E-003	3.59960E-001	-1.08170E+000	3.57820E+000	10	...........
	57	0.773333	9.55440E-001	5.99392E-003	0.00000E+000	5.72683E-003	3.59960E-001	-1.08112E+000	3.57820E+000	10	...........
	58	0.786667	9.61077E-001	5.99264E-003	0.00000E+000	5.75939E-003	3.59960E-001	-1.09139E+000	3.57820E+000	10	...........
	59	0.8	9.66669E-001	5.99076E-003	0.00000E+000	5.79108E-003	3.59960E-001	-1.08152E+000	3.57820E+000	10	...........
	60	0.813333	9.72232E-001	5.99353E-003	0.00000E+000	5.82711E-003	3.59960E-001	-1.08062E+000	3.57820E+000	10	...........
	61	0.826667	9.77742E-001	5.99285E-003	0.00000E+000	5.85946E-003	3.59960E-001	-1.09115E+000	3.57820E+000	10	...........
	62	0.84	9.83178E-001	5.99373E-003	0.00000E+000	5.89290E-003	3.59960E-001	-1.08177E+000	3.57820E+000	10	...........
	63	0.853333	9.88592E-001	5.99270E-003	0.00000E+000	5.92433E-003	3.59960E-001	-1.08093E+000	3.57820E+000	10	...........
	64	0.866667	9.93998E-001	5.99565E-003	0.00000E+000	5.95966E-003	3.59960E-001	-1.09110E+000	3.57820E+000	10	...........
	65	0.876667	9.98717E-001	5.99673E-003	0.00000E+000	5.98903E-003	3.59960E-001	-1.07712E+000	3.57820E+000	10	...........
STARTTIMEOFFSET	QUANT	336.5901	Start Time Offset (s)

File: CHARGE_#180.DTA
EXPLAIN
TAG	PWR800_CHARGE
TITLE	LABEL	PWR Cyclic Charge Discharge (Cell) - Charge Step	Test &Identifier
DATE	LABEL	22-6-2017	Date
TIME	LABEL	15:42:58	Time
NOTES	NOTES	3	&Notes...
	supercap test cell
	0.6mg
	6M KOH
PSTAT	PSTAT	IFC5000-01520	Potentiostat
CAPACITY	QUANT	1.00000E-003	Capacity (A-hr)
CELLTYPE	SELECTOR	1	&Cell Type
WORKINGCONNECTION	SELECTOR	0	&Working Lead
MAXCHARGETIME	VARIABLEANDUNITS	1.00000E+002	s	1.00000E+002	second(s)	Max &Charge Time
CHARGECURRENT	QUANT	6.00000E-003	&Charge Current (A)
VOLTAGEFINISH	TWOPARAM	F	1.00000E-003	3.60000E+003	&Voltage Finish	 I (A) < 	Max Time(s)
SAMPLETIME	QUANT	1.00000E-002	Sa&mple Period (s)
CHARGESTOPAT1	MULTIPARAM	4	1.00000E+000	Charge Stop At &1	Voltage > Limit	V
CHARGESTOPAT2	MULTIPARAM	0	0.00000E+000	Charge Stop At &2	None	N/A
AESBHCSELECTOR	TOGGLE	F	Save Both Half Cells
IRCOMP	TOGGLE	F	IR &Measure
EOC	QUANT	0	Open Circuit (V)
SEQUENCER	TOGGLE	TRUE	Run as Sequence
PSTATMODEL	IQUANT	53	Pstat Model
PSTATSECTION	LABEL	IFC5000-01520	Pstat Section
PSTATSERIALNO	LABEL	01520	Pstat Serial Number
CTRLMODE	IQUANT	0	Control Mode
ELECTROMETER	IQUANT	1	RE=0 or CS=1
IESTAB	IQUANT	0	I/E Stability
CASPEED	IQUANT	4	Control Amp Speed
CONVENTION	IQUANT	1	Current Convention
ICHRANGE	IQUANT	2	Ich Range
ICHRANGEMODE	TOGGLE	T	Ich Auto Range
ICHOFFSETENABLE	TOGGLE	F	Ich Offset Enable
ICHOFFSET	QUANT	0	Ich Offset (V)
ICHFILTER	IQUANT	1	Ich Filter
VCHRANGE	IQUANT	2	Vch Range
VCHRANGEMODE	TOGGLE	T	Vch Auto Range
VCHOFFSETENABLE	TOGGLE	F	Vch Offset Enable
VCHOFFSET	QUANT	0	Vch Offset (V)
VCHFILTER	IQUANT	1	Vch Filter
IERANGELOWERLIMIT	IQUANT	9	I/E Range Lower Limit
IERANGEMODE	TOGGLE	F	I/E AutoRange
IERANGE	IQUANT	10	I/E Range
ACHSELECT	IQUANT	1	Ach Select
ACHRANGE	IQUANT	2	Ach Range
ACHOFFSETENABLE	TOGGLE	F	Ach Offset Enable
ACHOFFSET	QUANT	0	Ach Offset (V)
ACHFILTER	IQUANT	1	Ach Filter
CABLEID	IQUANT	14	Cable ID
DCCALDATE	LABEL	20-10-2016	DC Calibration Date
ACCALDATE	LABEL	12/3/2015	AC Calibration Date
FRAMEWORKVERSION	QUANT	7.01	Framework Version
INSTRUMENTVERSION	LABEL	4.00	Instrument Version
CURVE	TABLE	66
	Pt	T	Vf	Im	Vu	Pwr	Sig	Ach	Temp	IERange	Over
	#	s	V	A	V	W	V	V	deg C	#	bits
	0	0.013333	6.02935E-001	5.99325E-003	0.00000E+000	3.61354E-003	3.59960E-001	-1.08718E+000	3.57690E+000	10	...........
	1	0.026667	6.11428E-001	5.99393E-003	0.00000E+000	3.66485E-003	3.59960E-001	-1.08979E+000	3.57690E+000	10	...........
	2	0.04	6.19172E-001	5.99127E-003	0.00000E+000	3.70962E-003	3.59960E-001	-1.08157E+000	3.57690E+000	10	...........
	3	0.053333	6.26438E-001	5.99373E-003	0.00000E+000	3.75470E-003	3.59960E-001	-1.08701E+000	3.57690E+000	10	...........
	4	0.066667	6.33498E-001	5.99517E-003	0.00000E+000	3.79793E-003	3.59960E-001	-1.08957E+000	3.57690E+000	10	...........
	5	0.08	6.40347E-001	5.99643E-003	0.00000E+000	3.83980E-003	3.59960E-001	-1.08144E+000	3.57690E+000	10	...........
	6	0.093333	6.47080E-001	5.99418E-003	0.00000E+000	3.87871E-003	3.59960E-001	-1.08641E+000	3.57690E+000	10	...........
	7	0.106667	6.53668E-001	5.98938E-003	0.00000E+000	3.91507E-003	3.59960E-001	-1.08917E+000	3.57690E+000	10	...........
	8	0.12	6.60233E-001	5.98850E-003	0.00000E+000	3.95381E-003	3.59960E-001	-1.08084E+000	3.57690E+000	10	...........
	9	0.133333	6.66742E-001	6.00078E-003	0.00000E+000	4.00097E-003	3.59960E-001	-1.08643E+000	3.57690E+000	10	...........
	10	0.146667	6.73144E-001	5.99398E-003	0.00000E+000	4.03481E-003	3.59960E-001	-1.08909E+000	3.57710E+000	10	...........
	11	0.16	6.79472E-001	5.99088E-003	0.00000E+000	4.07063E-003	3.59960E-001	-1.08111E+000	3.57770E+000	10	...........
	12	0.173333	6.85770E-001	5.99413E-003	0.00000E+000	4.11059E-003	3.59960E-001	-1.08623E+000	3.57770E+000	10	...........
	13	0.186667	6.92103E-001	5.99427E-003	0.00000E+000	4.14865E-003	3.59960E-001	-1.08897E+000	3.57770E+000	10	...........
	14	0.2	6.98342E-001	5.99355E-003	0.00000E+000	4.18555E-003	3.59960E-001	-1.08094E+000	3.57770E+000	10	...........
	15	0.213333	7.04503E-001	5.99320E-003	0.00000E+000	4.22223E-003	3.59960E-001	-1.08641E+000	3.57770E+000	10	...........
	16	0.226667	7.10716E-001	5.99014E-003	0.00000E+000	4.25729E-003	3.59960E-001	-1.08885E+000	3.57770E+000	10	...........
	17	0.24	7.16898E-001	5.99521E-003	0.00000E+000	4.29795E-003	3.59960E-001	-1.08080E+000	3.57770E+000	10	...........
	18	0.253333	7.23083E-001	5.99236E-003	0.00000E+000	4.33297E-003	3.59960E-001	-1.08621E+000	3.57770E+000	10	...........
	19	0.266667	7.29220E-001	5.99356E-003	0.00000E+000	4.37063E-003	3.59960E-001	-1.08904E+000	3.57770E+000	10	...........
	20	0.28	7.35351E-001	5.99310E-003	0.00000E+000	4.40704E-003	3.59960E-001	-1.08095E+000	3.57770E+000	10	...........
	21	0.293333	7.41483E-001	5.99869E-003	0.00000E+000	4.44793E-003	3.59960E-001	-1.08634E+000	3.57770E+000	10	...........
	22	0.306667	7.47599E-001	5.98943E-003	0.00000E+000	4.47770E-003	3.59960E-001	-1.08891E+000	3.57770E+000	10	...........
	23	0.32	7.53757E-001	5.99057E-003	0.00000E+000	4.51543E-003	3.59960E-001	-1.08105E+000	3.57770E+000	10	...........
	24	0.333333	7.59843E-001	5.99088E-003	0.00000E+000	4.55213E-003	3.59960E-001	-1.08652E+000	3.57770E+000	10	...........
	25	0.346667	7.65895E-001	5.99571E-003	0.00000E+000	4.59208E-003	3.59960E-001	-1.08899E+000	3.57770E+000	10	...........
	26	0.36	7.72016E-001	5.99749E-003	0.00000E+000	4.63016E-003	3.59960E-001	-1.08088E+000	3.57770E+000	10	...........
	27	0.373333	7.78088E-001	5.99529E-003	0.00000E+000	4.66487E-003	3.59960E-001	-1.08616E+000	3.57770E+000	10	...........
	28	0.386667	7.84135E-001	5.99348E-003	0.00000E+000	4.69970E-003	3.59960E-001	-1.08881E+000	3.57770E+000	10	...........
	29	0.4	7.90194E-001	5.99254E-003	0.00000E+000	4.73527E-003	3.59960E-001	-1.08061E+000	3.57770E+000	10	...........
	30	0.413333	7.96272E-001	5.99412E-003	0.00000E+000	4.77295E-003	3.59960E-001	-1.08586E+000	3.57770E+000	10	...........
	31	0.426667	8.02353E-001	5.99602E-003	0.00000E+000	4.81093E-003	3.59960E-001	-1.08833E+000	3.57770E+000	10	...........
	32	0.44	8.08406E-001	5.99370E-003	0.00000E+000	4.84534E-003	3.59960E-001	-1.08051E+000	3.57770E+000	10	...........
	33	0.453333	8.14412E-001	5.99459E-003	0.00000E+000	4.88207E-003	3.59960E-001	-1.08588E+000	3.57770E+000	10	...........
	34	0.466667	8.20479E-001	5.99523E-003	0.00000E+000	4.91896E-003	3.59960E-001	-1.08831E+000	3.57770E+000	10	...........
	35	0.48	8.26514E-001	5.99341E-003	0.00000E+000	4.95363E-003	3.59960E-001	-1.08025E+000	3.57770E+000	10	...........
	36	0.493333	8.32526E-001	5.99370E-003	0.00000E+000	4.98991E-003	3.59960E-001	-1.08586E+000	3.57770E+000	10	...........
	37	0.506667	8.38531E-001	5.99323E-003	0.00000E+000	5.02551E-003	3.59960E-001	-1.08852E+000	3.57770E+000	10	...........
	38	0.52	8.44529E-001	5.99528E-003	0.00000E+000	5.06319E-003	3.59960E-001	-1.08053E+000	3.57770E+000	10	...........
	39	0.533333	8.50511E-001	5.99343E-003	0.00000E+000	5.09748E-003	3.59960E-001	-1.08578E+000	3.57770E+000	10	...........
	40	0.546667	8.56448E-001	5.99672E-003	0.00000E+000	5.13588E-003	3.59960E-001	-1.08840E+000	3.57770E+000	10	...........
	41	0.56	8.62413E-001	5.99239E-003	0.00000E+000	5.16792E-003	3.59960E-001	-1.08038E+000	3.57770E+000	10	...........
	42	0.573333	8.68370E-001	5.99765E-003	0.00000E+000	5.20818E-003	3.59960E-001	-1.08570E+000	3.57770E+000	10	...........
	43	0.586667	8.74369E-001	5.99747E-003	0.00000E+000	5.24400E-003	3.59960E-001	-1.08845E+000	3.57770E+000	10	...........
	44	0.6	8.80276E-001	5.99446E-003	0.00000E+000	5.27678E-003	3.59960E-001	-1.08013E+000	3.57770E+000	10	...........
	45	0.613333	8.86176E-001	5.98858E-003	0.00000E+000	5.30693E-003	3.59960E-001	-1.08549E+000	3.57770E+000	10	...........
	46	0.626667	8.92070E-001	5.99638E-003	0.00000E+000	5.34919E-003	3.59960E-001	-1.08845E+000	3.57770E+000	10	...........
	47	0.64	8.97982E-001	5.99663E-003	0.00000E+000	5.38487E-003	3.59960E-001	-1.08043E+000	3.57770E+000	10	...........
	48	0.653333	9.03838E-001	5.99373E-003	0.00000E+000	5.41736E-003	3.59960E-001	-1.08571E+000	3.57770E+000	10	...........
	49	0.666667	9.09671E-001	5.99164E-003	0.00000E+000	5.45042E-003	3.59960E-001	-1.08811E+000	3.57770E+000	10	...........
	50	0.68	9.15506E-001	5.99318E-003	0.00000E+000	5.48679E-003	3.59960E-001	-1.08037E+000	3.57770E+000	10	...........
	51	0.693333	9.21366E-001	5.99307E-003	0.00000E+000	5.52181E-003	3.59960E-001	-1.08581E+000	3.57770E+000	10	...........
	52	0.706667	9.27156E-001	5.99647E-003	0.00000E+000	5.55966E-003	3.59960E-001	-1.08828E+000	3.57770E+000	10	...........
	53	0.72	9.32902E-001	5.99464E-003	0.00000E+000	5.59241E-003	3.59960E-001	-1.07997E+000	3.57770E+000	10	...........
	54	0.733333	9.38586E-001	5.99429E-003	0.00000E+000	5.62616E-003	3.59960E-001	-1.08523E+000	3.57770E+000	10	...........
	55	0.746667	9.44270E-001	5.99418E-003	0.00000E+000	5.66012E-003	3.59960E-001	-1.08783E+000	3.57770E+000	10	...........
	56	0.76	9.49974E-001	5.99575E-003	0.00000E+000	5.69581E-003	3.59960E-001	-1.07994E+000	3.57770E+000	10	...........
	57	0.773333	9.55626E-001	5.99135E-003	0.00000E+000	5.72549E-003	3.59960E-001	-1.08548E+000	3.57770E+000	10	...........
	58	0.786667	9.61238E-001	5.99268E-003	0.00000E+000	5.76039E-003	3.59960E-001	-1.08785E+000	3.57770E+000	10	...........
	59	0.8	9.66823E-001	5.99670E-003	0.00000E+000	5.79775E-003	3.59960E-001	-1.07971E+000	3.57770E+000	10	...........
	60	0.813333	9.72381E-001	5.99239E-003	0.00000E+000	5.82689E-003	3.59960E-001	-1.08497E+000	3.57770E+000	10	...........
	61	0.826667	9.77904E-001	5.99526E-003	0.00000E+000	5.86279E-003	3.59960E-001	-1.08791E+000	3.57770E+000	10	...........
	62	0.84	9.83360E-001	5.99446E-003	0.00000E+000	5.89471E-003	3.59960E-001	-1.07987E+000	3.57770E+000	10	...........
	63	0.853333	9.88791E-001	5.99274E-003	0.00000E+000	5.92557E-003	3.59960E-001	-1.08507E+000	3.57770E+000	10	...........
	64	0.866667	9.94162E-001	5.99618E-003	0.00000E+000	5.96117E-003	3.59960E-001	-1.08768E+000	3.57770E+000	10	...........
	65	0.876667	9.98862E-001	5.99745E-003	0.00000E+000	5.99062E-003	3.59960E-001	-1.07596E+000	3.57770E+000	10	...........
STARTTIMEOFFSET	QUANT	338.3335	Start Time Offset (s)