Folder: Tesis/Data/CV_CRGO300517_1/PWRCCD_CRGO300517_1/CHARGE_DISCHARGE (part 182)

File: CHARGE_#370.DTA
EXPLAIN
TAG	PWR800_CHARGE
TITLE	LABEL	PWR Cyclic Charge Discharge (Cell) - Charge Step	Test &Identifier
DATE	LABEL	22-6-2017	Date
TIME	LABEL	15:50:47	Time
NOTES	NOTES	3	&Notes...
	supercap test cell
	0.6mg
	6M KOH
PSTAT	PSTAT	IFC5000-01520	Potentiostat
CAPACITY	QUANT	1.00000E-003	Capacity (A-hr)
CELLTYPE	SELECTOR	1	&Cell Type
WORKINGCONNECTION	SELECTOR	0	&Working Lead
MAXCHARGETIME	VARIABLEANDUNITS	1.00000E+002	s	1.00000E+002	second(s)	Max &Charge Time
CHARGECURRENT	QUANT	6.00000E-003	&Charge Current (A)
VOLTAGEFINISH	TWOPARAM	F	1.00000E-003	3.60000E+003	&Voltage Finish	 I (A) < 	Max Time(s)
SAMPLETIME	QUANT	1.00000E-002	Sa&mple Period (s)
CHARGESTOPAT1	MULTIPARAM	4	1.00000E+000	Charge Stop At &1	Voltage > Limit	V
CHARGESTOPAT2	MULTIPARAM	0	0.00000E+000	Charge Stop At &2	None	N/A
AESBHCSELECTOR	TOGGLE	F	Save Both Half Cells
IRCOMP	TOGGLE	F	IR &Measure
EOC	QUANT	0	Open Circuit (V)
SEQUENCER	TOGGLE	TRUE	Run as Sequence
PSTATMODEL	IQUANT	53	Pstat Model
PSTATSECTION	LABEL	IFC5000-01520	Pstat Section
PSTATSERIALNO	LABEL	01520	Pstat Serial Number
CTRLMODE	IQUANT	0	Control Mode
ELECTROMETER	IQUANT	1	RE=0 or CS=1
IESTAB	IQUANT	0	I/E Stability
CASPEED	IQUANT	4	Control Amp Speed
CONVENTION	IQUANT	1	Current Convention
ICHRANGE	IQUANT	2	Ich Range
ICHRANGEMODE	TOGGLE	T	Ich Auto Range
ICHOFFSETENABLE	TOGGLE	F	Ich Offset Enable
ICHOFFSET	QUANT	0	Ich Offset (V)
ICHFILTER	IQUANT	1	Ich Filter
VCHRANGE	IQUANT	2	Vch Range
VCHRANGEMODE	TOGGLE	T	Vch Auto Range
VCHOFFSETENABLE	TOGGLE	F	Vch Offset Enable
VCHOFFSET	QUANT	0	Vch Offset (V)
VCHFILTER	IQUANT	1	Vch Filter
IERANGELOWERLIMIT	IQUANT	9	I/E Range Lower Limit
IERANGEMODE	TOGGLE	F	I/E AutoRange
IERANGE	IQUANT	10	I/E Range
ACHSELECT	IQUANT	1	Ach Select
ACHRANGE	IQUANT	2	Ach Range
ACHOFFSETENABLE	TOGGLE	F	Ach Offset Enable
ACHOFFSET	QUANT	0	Ach Offset (V)
ACHFILTER	IQUANT	1	Ach Filter
CABLEID	IQUANT	14	Cable ID
DCCALDATE	LABEL	20-10-2016	DC Calibration Date
ACCALDATE	LABEL	12/3/2015	AC Calibration Date
FRAMEWORKVERSION	QUANT	7.01	Framework Version
INSTRUMENTVERSION	LABEL	4.00	Instrument Version
CURVE	TABLE	61
	Pt	T	Vf	Im	Vu	Pwr	Sig	Ach	Temp	IERange	Over
	#	s	V	A	V	W	V	V	deg C	#	bits
	0	0.013333	6.22341E-001	5.99620E-003	0.00000E+000	3.73168E-003	3.59960E-001	-1.12345E+000	3.57740E+000	10	...........
	1	0.026667	6.31003E-001	5.99240E-003	0.00000E+000	3.78122E-003	3.59960E-001	-1.11438E+000	3.57740E+000	10	...........
	2	0.04	6.39049E-001	5.99131E-003	0.00000E+000	3.82874E-003	3.59960E-001	-1.11158E+000	3.57740E+000	10	...........
	3	0.053333	6.46617E-001	5.99295E-003	0.00000E+000	3.87514E-003	3.59960E-001	-1.12280E+000	3.57740E+000	10	...........
	4	0.066667	6.53945E-001	5.99818E-003	0.00000E+000	3.92248E-003	3.59960E-001	-1.11447E+000	3.57740E+000	10	...........
	5	0.08	6.61064E-001	5.99769E-003	0.00000E+000	3.96486E-003	3.59960E-001	-1.11166E+000	3.57740E+000	10	...........
	6	0.093333	6.68076E-001	5.99513E-003	0.00000E+000	4.00520E-003	3.59960E-001	-1.12264E+000	3.57740E+000	10	...........
	7	0.106667	6.74930E-001	5.99064E-003	0.00000E+000	4.04326E-003	3.59960E-001	-1.11344E+000	3.57740E+000	10	...........
	8	0.12	6.81700E-001	5.99599E-003	0.00000E+000	4.08747E-003	3.59960E-001	-1.11127E+000	3.57740E+000	10	...........
	9	0.133333	6.88441E-001	5.99735E-003	0.00000E+000	4.12882E-003	3.59960E-001	-1.12280E+000	3.57740E+000	10	...........
	10	0.146667	6.95118E-001	5.99080E-003	0.00000E+000	4.16431E-003	3.59960E-001	-1.11381E+000	3.57740E+000	10	...........
	11	0.16	7.01759E-001	5.99771E-003	0.00000E+000	4.20895E-003	3.59960E-001	-1.11118E+000	3.57740E+000	10	...........
	12	0.173333	7.08329E-001	5.99601E-003	0.00000E+000	4.24715E-003	3.59960E-001	-1.12213E+000	3.57740E+000	10	...........
	13	0.186667	7.14855E-001	5.99234E-003	0.00000E+000	4.28365E-003	3.59960E-001	-1.11359E+000	3.57740E+000	10	...........
	14	0.2	7.21392E-001	5.99427E-003	0.00000E+000	4.32422E-003	3.59960E-001	-1.11135E+000	3.57740E+000	10	...........
	15	0.213333	7.27801E-001	5.99378E-003	0.00000E+000	4.36228E-003	3.59960E-001	-1.12242E+000	3.57722E+000	10	...........
	16	0.226667	7.34262E-001	5.99341E-003	0.00000E+000	4.40073E-003	3.59960E-001	-1.11325E+000	3.57670E+000	10	...........
	17	0.24	7.40692E-001	5.99090E-003	0.00000E+000	4.43741E-003	3.59960E-001	-1.11081E+000	3.57670E+000	10	...........
	18	0.253333	7.47133E-001	5.99692E-003	0.00000E+000	4.48050E-003	3.59960E-001	-1.12240E+000	3.57670E+000	10	...........
	19	0.266667	7.53558E-001	5.99466E-003	0.00000E+000	4.51732E-003	3.59960E-001	-1.11368E+000	3.57670E+000	10	...........
	20	0.28	7.59960E-001	5.98863E-003	0.00000E+000	4.55112E-003	3.59960E-001	-1.11113E+000	3.57670E+000	10	...........
	21	0.293333	7.66310E-001	5.99656E-003	0.00000E+000	4.59522E-003	3.59960E-001	-1.12219E+000	3.57670E+000	10	...........
	22	0.306667	7.72690E-001	5.99465E-003	0.00000E+000	4.63200E-003	3.59960E-001	-1.11333E+000	3.57670E+000	10	...........
	23	0.32	7.79022E-001	5.99246E-003	0.00000E+000	4.66826E-003	3.59960E-001	-1.11146E+000	3.57670E+000	10	...........
	24	0.333333	7.85383E-001	5.99472E-003	0.00000E+000	4.70815E-003	3.59960E-001	-1.12262E+000	3.57670E+000	10	...........
	25	0.346667	7.91646E-001	5.99147E-003	0.00000E+000	4.74312E-003	3.59960E-001	-1.11358E+000	3.57670E+000	10	...........
	26	0.36	7.97943E-001	5.99540E-003	0.00000E+000	4.78399E-003	3.59960E-001	-1.11149E+000	3.57670E+000	10	...........
	27	0.373333	8.04243E-001	5.99477E-003	0.00000E+000	4.82125E-003	3.59960E-001	-1.12255E+000	3.57670E+000	10	...........
	28	0.386667	8.10539E-001	5.99854E-003	0.00000E+000	4.86205E-003	3.59960E-001	-1.11364E+000	3.57670E+000	10	...........
	29	0.4	8.16845E-001	5.99282E-003	0.00000E+000	4.89521E-003	3.59960E-001	-1.11148E+000	3.57670E+000	10	...........
	30	0.413333	8.23139E-001	5.99700E-003	0.00000E+000	4.93637E-003	3.59960E-001	-1.12292E+000	3.57670E+000	10	...........
	31	0.426667	8.29351E-001	5.99290E-003	0.00000E+000	4.97022E-003	3.59960E-001	-1.11393E+000	3.57670E+000	10	...........
	32	0.44	8.35561E-001	5.99329E-003	0.00000E+000	5.00776E-003	3.59960E-001	-1.11183E+000	3.57670E+000	10	...........
	33	0.453333	8.41820E-001	5.99344E-003	0.00000E+000	5.04540E-003	3.59960E-001	-1.12300E+000	3.57670E+000	10	...........
	34	0.466667	8.48044E-001	5.99500E-003	0.00000E+000	5.08403E-003	3.59960E-001	-1.11387E+000	3.57670E+000	10	...........
	35	0.48	8.54269E-001	5.99073E-003	0.00000E+000	5.11769E-003	3.59960E-001	-1.11187E+000	3.57670E+000	10	...........
	36	0.493333	8.60476E-001	5.98905E-003	0.00000E+000	5.15343E-003	3.59960E-001	-1.12325E+000	3.57670E+000	10	...........
	37	0.506667	8.66667E-001	5.99511E-003	0.00000E+000	5.19576E-003	3.59960E-001	-1.11411E+000	3.57670E+000	10	...........
	38	0.52	8.72812E-001	5.99126E-003	0.00000E+000	5.22924E-003	3.59960E-001	-1.11214E+000	3.57670E+000	10	...........
	39	0.533333	8.78937E-001	5.99195E-003	0.00000E+000	5.26654E-003	3.59960E-001	-1.12322E+000	3.57670E+000	10	...........
	40	0.546667	8.85065E-001	5.99359E-003	0.00000E+000	5.30472E-003	3.59960E-001	-1.11387E+000	3.57670E+000	10	...........
	41	0.56	8.91112E-001	5.99682E-003	0.00000E+000	5.34384E-003	3.59960E-001	-1.11202E+000	3.57670E+000	10	...........
	42	0.573333	8.97153E-001	5.99685E-003	0.00000E+000	5.38009E-003	3.59960E-001	-1.12339E+000	3.57670E+000	10	...........
	43	0.586667	9.03183E-001	5.99199E-003	0.00000E+000	5.41186E-003	3.59960E-001	-1.11386E+000	3.57670E+000	10	...........
	44	0.6	9.09210E-001	5.99191E-003	0.00000E+000	5.44791E-003	3.59960E-001	-1.11195E+000	3.57670E+000	10	...........
	45	0.613333	9.15195E-001	5.99382E-003	0.00000E+000	5.48552E-003	3.59960E-001	-1.12324E+000	3.57670E+000	10	...........
	46	0.626667	9.21227E-001	5.99101E-003	0.00000E+000	5.51908E-003	3.59960E-001	-1.11406E+000	3.57670E+000	10	...........
	47	0.64	9.27157E-001	5.99819E-003	0.00000E+000	5.56127E-003	3.59960E-001	-1.11232E+000	3.57670E+000	10	...........
	48	0.653333	9.33034E-001	5.98886E-003	0.00000E+000	5.58781E-003	3.59960E-001	-1.12315E+000	3.57670E+000	10	...........
	49	0.666667	9.38913E-001	5.99105E-003	0.00000E+000	5.62507E-003	3.59960E-001	-1.11406E+000	3.57670E+000	10	...........
	50	0.68	9.44702E-001	5.99451E-003	0.00000E+000	5.66303E-003	3.59960E-001	-1.11219E+000	3.57670E+000	10	...........
	51	0.693333	9.50511E-001	5.99114E-003	0.00000E+000	5.69464E-003	3.59960E-001	-1.12358E+000	3.57670E+000	10	...........
	52	0.706667	9.56287E-001	5.99309E-003	0.00000E+000	5.73111E-003	3.59960E-001	-1.11399E+000	3.57670E+000	10	...........
	53	0.72	9.61967E-001	5.99247E-003	0.00000E+000	5.76456E-003	3.59960E-001	-1.11211E+000	3.57670E+000	10	...........
	54	0.733333	9.67648E-001	5.99795E-003	0.00000E+000	5.80391E-003	3.59960E-001	-1.12355E+000	3.57670E+000	10	...........
	55	0.746667	9.73324E-001	5.99637E-003	0.00000E+000	5.83641E-003	3.59960E-001	-1.11433E+000	3.57670E+000	10	...........
	56	0.76	9.78931E-001	5.99701E-003	0.00000E+000	5.87066E-003	3.59960E-001	-1.11265E+000	3.57670E+000	10	...........
	57	0.773333	9.84483E-001	5.99683E-003	0.00000E+000	5.90378E-003	3.59960E-001	-1.12396E+000	3.57670E+000	10	...........
	58	0.786667	9.89984E-001	5.99587E-003	0.00000E+000	5.93581E-003	3.59960E-001	-1.11440E+000	3.57670E+000	10	...........
	59	0.8	9.95450E-001	5.99714E-003	0.00000E+000	5.96985E-003	3.59960E-001	-1.11263E+000	3.57670E+000	10	...........
	60	0.806667	9.99541E-001	5.99659E-003	0.00000E+000	5.99384E-003	3.59960E-001	-1.12610E+000	3.57670E+000	10	...........
STARTTIMEOFFSET	QUANT	654.8315	Start Time Offset (s)

File: CHARGE_#371.DTA
EXPLAIN
TAG	PWR800_CHARGE
TITLE	LABEL	PWR Cyclic Charge Discharge (Cell) - Charge Step	Test &Identifier
DATE	LABEL	22-6-2017	Date
TIME	LABEL	15:50:49	Time
NOTES	NOTES	3	&Notes...
	supercap test cell
	0.6mg
	6M KOH
PSTAT	PSTAT	IFC5000-01520	Potentiostat
CAPACITY	QUANT	1.00000E-003	Capacity (A-hr)
CELLTYPE	SELECTOR	1	&Cell Type
WORKINGCONNECTION	SELECTOR	0	&Working Lead
MAXCHARGETIME	VARIABLEANDUNITS	1.00000E+002	s	1.00000E+002	second(s)	Max &Charge Time
CHARGECURRENT	QUANT	6.00000E-003	&Charge Current (A)
VOLTAGEFINISH	TWOPARAM	F	1.00000E-003	3.60000E+003	&Voltage Finish	 I (A) < 	Max Time(s)
SAMPLETIME	QUANT	1.00000E-002	Sa&mple Period (s)
CHARGESTOPAT1	MULTIPARAM	4	1.00000E+000	Charge Stop At &1	Voltage > Limit	V
CHARGESTOPAT2	MULTIPARAM	0	0.00000E+000	Charge Stop At &2	None	N/A
AESBHCSELECTOR	TOGGLE	F	Save Both Half Cells
IRCOMP	TOGGLE	F	IR &Measure
EOC	QUANT	0	Open Circuit (V)
SEQUENCER	TOGGLE	TRUE	Run as Sequence
PSTATMODEL	IQUANT	53	Pstat Model
PSTATSECTION	LABEL	IFC5000-01520	Pstat Section
PSTATSERIALNO	LABEL	01520	Pstat Serial Number
CTRLMODE	IQUANT	0	Control Mode
ELECTROMETER	IQUANT	1	RE=0 or CS=1
IESTAB	IQUANT	0	I/E Stability
CASPEED	IQUANT	4	Control Amp Speed
CONVENTION	IQUANT	1	Current Convention
ICHRANGE	IQUANT	2	Ich Range
ICHRANGEMODE	TOGGLE	T	Ich Auto Range
ICHOFFSETENABLE	TOGGLE	F	Ich Offset Enable
ICHOFFSET	QUANT	0	Ich Offset (V)
ICHFILTER	IQUANT	1	Ich Filter
VCHRANGE	IQUANT	2	Vch Range
VCHRANGEMODE	TOGGLE	T	Vch Auto Range
VCHOFFSETENABLE	TOGGLE	F	Vch Offset Enable
VCHOFFSET	QUANT	0	Vch Offset (V)
VCHFILTER	IQUANT	1	Vch Filter
IERANGELOWERLIMIT	IQUANT	9	I/E Range Lower Limit
IERANGEMODE	TOGGLE	F	I/E AutoRange
IERANGE	IQUANT	10	I/E Range
ACHSELECT	IQUANT	1	Ach Select
ACHRANGE	IQUANT	2	Ach Range
ACHOFFSETENABLE	TOGGLE	F	Ach Offset Enable
ACHOFFSET	QUANT	0	Ach Offset (V)
ACHFILTER	IQUANT	1	Ach Filter
CABLEID	IQUANT	14	Cable ID
DCCALDATE	LABEL	20-10-2016	DC Calibration Date
ACCALDATE	LABEL	12/3/2015	AC Calibration Date
FRAMEWORKVERSION	QUANT	7.01	Framework Version
INSTRUMENTVERSION	LABEL	4.00	Instrument Version
CURVE	TABLE	61
	Pt	T	Vf	Im	Vu	Pwr	Sig	Ach	Temp	IERange	Over
	#	s	V	A	V	W	V	V	deg C	#	bits
	0	0.013333	6.22527E-001	5.99777E-003	0.00000E+000	3.73377E-003	3.59960E-001	-1.12348E+000	3.57680E+000	10	...........
	1	0.026667	6.31231E-001	5.99597E-003	0.00000E+000	3.78485E-003	3.59960E-001	-1.11584E+000	3.57680E+000	10	...........
	2	0.04	6.39227E-001	5.99274E-003	0.00000E+000	3.83072E-003	3.59960E-001	-1.12292E+000	3.57680E+000	10	...........
	3	0.053333	6.46830E-001	5.99297E-003	0.00000E+000	3.87643E-003	3.59960E-001	-1.12274E+000	3.57680E+000	10	...........
	4	0.066667	6.54115E-001	5.99282E-003	0.00000E+000	3.91999E-003	3.59960E-001	-1.11478E+000	3.57680E+000	10	...........
	5	0.08	6.61281E-001	5.99445E-003	0.00000E+000	3.96402E-003	3.59960E-001	-1.12219E+000	3.57680E+000	10	...........
	6	0.093333	6.68305E-001	5.99292E-003	0.00000E+000	4.00510E-003	3.59960E-001	-1.12250E+000	3.57680E+000	10	...........
	7	0.106667	6.75176E-001	5.99737E-003	0.00000E+000	4.04928E-003	3.59960E-001	-1.11503E+000	3.57680E+000	10	...........
	8	0.12	6.81923E-001	5.99916E-003	0.00000E+000	4.09097E-003	3.59960E-001	-1.12208E+000	3.57680E+000	10	...........
	9	0.133333	6.88649E-001	5.99343E-003	0.00000E+000	4.12737E-003	3.59960E-001	-1.12223E+000	3.57680E+000	10	...........
	10	0.146667	6.95310E-001	5.99269E-003	0.00000E+000	4.16677E-003	3.59960E-001	-1.11507E+000	3.57680E+000	10	...........
	11	0.16	7.01884E-001	5.99417E-003	0.00000E+000	4.20721E-003	3.59960E-001	-1.12242E+000	3.57680E+000	10	...........
	12	0.173333	7.08437E-001	5.99231E-003	0.00000E+000	4.24518E-003	3.59960E-001	-1.12214E+000	3.57680E+000	10	...........
	13	0.186667	7.14976E-001	5.99860E-003	0.00000E+000	4.28886E-003	3.59960E-001	-1.11471E+000	3.57680E+000	10	...........
	14	0.2	7.21517E-001	5.99227E-003	0.00000E+000	4.32353E-003	3.59960E-001	-1.12210E+000	3.57680E+000	10	...........
	15	0.213333	7.27998E-001	5.99963E-003	0.00000E+000	4.36772E-003	3.59960E-001	-1.12213E+000	3.57680E+000	10	...........
	16	0.226667	7.34448E-001	5.99338E-003	0.00000E+000	4.40183E-003	3.59960E-001	-1.11480E+000	3.57680E+000	10	...........
	17	0.24	7.40877E-001	5.99449E-003	0.00000E+000	4.44118E-003	3.59960E-001	-1.12194E+000	3.57680E+000	10	...........
	18	0.253333	7.47297E-001	5.99416E-003	0.00000E+000	4.47941E-003	3.59960E-001	-1.12188E+000	3.57680E+000	10	...........
	19	0.266667	7.53717E-001	5.99851E-003	0.00000E+000	4.52117E-003	3.59960E-001	-1.11482E+000	3.57680E+000	10	...........
	20	0.28	7.60137E-001	5.99322E-003	0.00000E+000	4.55566E-003	3.59960E-001	-1.12252E+000	3.57680E+000	10	...........
	21	0.293333	7.66540E-001	5.99288E-003	0.00000E+000	4.59379E-003	3.59960E-001	-1.12230E+000	3.57680E+000	10	...........
	22	0.306667	7.72896E-001	5.99495E-003	0.00000E+000	4.63347E-003	3.59960E-001	-1.11469E+000	3.57680E+000	10	...........
	23	0.32	7.79236E-001	5.98829E-003	0.00000E+000	4.66629E-003	3.59960E-001	-1.12220E+000	3.57680E+000	10	...........
	24	0.333333	7.85611E-001	5.99468E-003	0.00000E+000	4.70948E-003	3.59960E-001	-1.12205E+000	3.57680E+000	10	...........
	25	0.346667	7.91923E-001	5.99742E-003	0.00000E+000	4.74950E-003	3.59960E-001	-1.11495E+000	3.57680E+000	10	...........
	26	0.36	7.98234E-001	5.99616E-003	0.00000E+000	4.78634E-003	3.59960E-001	-1.12249E+000	3.57680E+000	10	...........
	27	0.373333	8.04513E-001	5.99447E-003	0.00000E+000	4.82263E-003	3.59960E-001	-1.12198E+000	3.57680E+000	10	...........
	28	0.386667	8.10774E-001	5.99565E-003	0.00000E+000	4.86112E-003	3.59960E-001	-1.11421E+000	3.57680E+000	10	...........
	29	0.4	8.17093E-001	5.99489E-003	0.00000E+000	4.89838E-003	3.59960E-001	-1.12174E+000	3.57680E+000	10	...........
	30	0.413333	8.23330E-001	5.99550E-003	0.00000E+000	4.93628E-003	3.59960E-001	-1.12162E+000	3.57680E+000	10	...........
	31	0.426667	8.29566E-001	5.98996E-003	0.00000E+000	4.96907E-003	3.59960E-001	-1.11452E+000	3.57680E+000	10	...........
	32	0.44	8.35801E-001	5.99353E-003	0.00000E+000	5.00940E-003	3.59960E-001	-1.12202E+000	3.57680E+000	10	...........
	33	0.453333	8.41992E-001	5.99175E-003	0.00000E+000	5.04500E-003	3.59960E-001	-1.12157E+000	3.57680E+000	10	...........
	34	0.466667	8.48254E-001	5.99452E-003	0.00000E+000	5.08488E-003	3.59960E-001	-1.11439E+000	3.57680E+000	10	...........
	35	0.48	8.54446E-001	5.99269E-003	0.00000E+000	5.12043E-003	3.59960E-001	-1.12223E+000	3.57680E+000	10	...........
	36	0.493333	8.60635E-001	5.99529E-003	0.00000E+000	5.15976E-003	3.59960E-001	-1.12180E+000	3.57680E+000	10	...........
	37	0.506667	8.66766E-001	5.99237E-003	0.00000E+000	5.19399E-003	3.59960E-001	-1.11455E+000	3.57680E+000	10	...........
	38	0.52	8.72988E-001	5.99461E-003	0.00000E+000	5.23322E-003	3.59960E-001	-1.12200E+000	3.57680E+000	10	...........
	39	0.533333	8.79123E-001	5.99621E-003	0.00000E+000	5.27141E-003	3.59960E-001	-1.12150E+000	3.57680E+000	10	...........
	40	0.546667	8.85243E-001	5.99611E-003	0.00000E+000	5.30801E-003	3.59960E-001	-1.11449E+000	3.57680E+000	10	...........
	41	0.56	8.91309E-001	5.99560E-003	0.00000E+000	5.34393E-003	3.59960E-001	-1.12203E+000	3.57680E+000	10	...........
	42	0.573333	8.97367E-001	5.99505E-003	0.00000E+000	5.37976E-003	3.59960E-001	-1.12163E+000	3.57680E+000	10	...........
	43	0.586667	9.03382E-001	5.99770E-003	0.00000E+000	5.41822E-003	3.59960E-001	-1.11429E+000	3.57680E+000	10	...........
	44	0.6	9.09394E-001	5.99506E-003	0.00000E+000	5.45188E-003	3.59960E-001	-1.12237E+000	3.57680E+000	10	...........
	45	0.613333	9.15451E-001	5.99816E-003	0.00000E+000	5.49103E-003	3.59960E-001	-1.12169E+000	3.57680E+000	10	...........
	46	0.626667	9.21434E-001	5.99486E-003	0.00000E+000	5.52386E-003	3.59960E-001	-1.11478E+000	3.57680E+000	10	...........
	47	0.64	9.27380E-001	5.99222E-003	0.00000E+000	5.55706E-003	3.59960E-001	-1.12240E+000	3.57680E+000	10	...........
	48	0.653333	9.33282E-001	5.99469E-003	0.00000E+000	5.59473E-003	3.59960E-001	-1.12151E+000	3.57680E+000	10	...........
	49	0.666667	9.39139E-001	5.98811E-003	0.00000E+000	5.62366E-003	3.59960E-001	-1.11449E+000	3.57680E+000	10	...........
	50	0.68	9.44980E-001	5.99543E-003	0.00000E+000	5.66556E-003	3.59960E-001	-1.12246E+000	3.57680E+000	10	...........
	51	0.693333	9.50793E-001	5.99308E-003	0.00000E+000	5.69818E-003	3.59960E-001	-1.12151E+000	3.57680E+000	10	...........
	52	0.706667	9.56585E-001	5.99711E-003	0.00000E+000	5.73675E-003	3.59960E-001	-1.11377E+000	3.57680E+000	10	...........
	53	0.72	9.62281E-001	5.99257E-003	0.00000E+000	5.76654E-003	3.59960E-001	-1.12160E+000	3.57680E+000	10	...........
	54	0.733333	9.67952E-001	5.99337E-003	0.00000E+000	5.80130E-003	3.59960E-001	-1.12060E+000	3.57680E+000	10	...........
	55	0.746667	9.73609E-001	5.99399E-003	0.00000E+000	5.83580E-003	3.59960E-001	-1.11379E+000	3.57680E+000	10	...........
	56	0.76	9.79189E-001	5.99340E-003	0.00000E+000	5.86867E-003	3.59960E-001	-1.12157E+000	3.57680E+000	10	...........
	57	0.773333	9.84712E-001	5.99734E-003	0.00000E+000	5.90565E-003	3.59960E-001	-1.12064E+000	3.57680E+000	10	...........
	58	0.786667	9.90192E-001	5.98978E-003	0.00000E+000	5.93103E-003	3.59960E-001	-1.11370E+000	3.57680E+000	10	...........
	59	0.8	9.95657E-001	5.99440E-003	0.00000E+000	5.96836E-003	3.59960E-001	-1.12168E+000	3.57680E+000	10	...........
	60	0.805	9.99440E-001	5.99045E-003	0.00000E+000	5.98710E-003	3.59960E-001	-1.10807E+000	3.57680E+000	10	...........
STARTTIMEOFFSET	QUANT	656.4365	Start Time Offset (s)