Folder: Tesis/Data/CV_CRGO300517_1/PWRCCD_CRGO300517_1/CHARGE_DISCHARGE (part 40)

File: CHARGE_#79.DTA
EXPLAIN
TAG	PWR800_CHARGE
TITLE	LABEL	PWR Cyclic Charge Discharge (Cell) - Charge Step	Test &Identifier
DATE	LABEL	22-6-2017	Date
TIME	LABEL	15:38:34	Time
NOTES	NOTES	3	&Notes...
	supercap test cell
	0.6mg
	6M KOH
PSTAT	PSTAT	IFC5000-01520	Potentiostat
CAPACITY	QUANT	1.00000E-003	Capacity (A-hr)
CELLTYPE	SELECTOR	1	&Cell Type
WORKINGCONNECTION	SELECTOR	0	&Working Lead
MAXCHARGETIME	VARIABLEANDUNITS	1.00000E+002	s	1.00000E+002	second(s)	Max &Charge Time
CHARGECURRENT	QUANT	6.00000E-003	&Charge Current (A)
VOLTAGEFINISH	TWOPARAM	F	1.00000E-003	3.60000E+003	&Voltage Finish	 I (A) < 	Max Time(s)
SAMPLETIME	QUANT	1.00000E-002	Sa&mple Period (s)
CHARGESTOPAT1	MULTIPARAM	4	1.00000E+000	Charge Stop At &1	Voltage > Limit	V
CHARGESTOPAT2	MULTIPARAM	0	0.00000E+000	Charge Stop At &2	None	N/A
AESBHCSELECTOR	TOGGLE	F	Save Both Half Cells
IRCOMP	TOGGLE	F	IR &Measure
EOC	QUANT	0	Open Circuit (V)
SEQUENCER	TOGGLE	TRUE	Run as Sequence
PSTATMODEL	IQUANT	53	Pstat Model
PSTATSECTION	LABEL	IFC5000-01520	Pstat Section
PSTATSERIALNO	LABEL	01520	Pstat Serial Number
CTRLMODE	IQUANT	0	Control Mode
ELECTROMETER	IQUANT	1	RE=0 or CS=1
IESTAB	IQUANT	0	I/E Stability
CASPEED	IQUANT	4	Control Amp Speed
CONVENTION	IQUANT	1	Current Convention
ICHRANGE	IQUANT	2	Ich Range
ICHRANGEMODE	TOGGLE	T	Ich Auto Range
ICHOFFSETENABLE	TOGGLE	F	Ich Offset Enable
ICHOFFSET	QUANT	0	Ich Offset (V)
ICHFILTER	IQUANT	1	Ich Filter
VCHRANGE	IQUANT	2	Vch Range
VCHRANGEMODE	TOGGLE	T	Vch Auto Range
VCHOFFSETENABLE	TOGGLE	F	Vch Offset Enable
VCHOFFSET	QUANT	0	Vch Offset (V)
VCHFILTER	IQUANT	1	Vch Filter
IERANGELOWERLIMIT	IQUANT	9	I/E Range Lower Limit
IERANGEMODE	TOGGLE	F	I/E AutoRange
IERANGE	IQUANT	10	I/E Range
ACHSELECT	IQUANT	1	Ach Select
ACHRANGE	IQUANT	2	Ach Range
ACHOFFSETENABLE	TOGGLE	F	Ach Offset Enable
ACHOFFSET	QUANT	0	Ach Offset (V)
ACHFILTER	IQUANT	1	Ach Filter
CABLEID	IQUANT	14	Cable ID
DCCALDATE	LABEL	20-10-2016	DC Calibration Date
ACCALDATE	LABEL	12/3/2015	AC Calibration Date
FRAMEWORKVERSION	QUANT	7.01	Framework Version
INSTRUMENTVERSION	LABEL	4.00	Instrument Version
CURVE	TABLE	71
	Pt	T	Vf	Im	Vu	Pwr	Sig	Ach	Temp	IERange	Over
	#	s	V	A	V	W	V	V	deg C	#	bits
	0	0.013333	5.83874E-001	5.99498E-003	0.00000E+000	3.50031E-003	3.59960E-001	-1.05578E+000	3.57850E+000	10	...........
	1	0.026667	5.92124E-001	5.99455E-003	0.00000E+000	3.54952E-003	3.59960E-001	-1.06420E+000	3.57850E+000	10	...........
	2	0.04	5.99641E-001	5.99400E-003	0.00000E+000	3.59425E-003	3.59960E-001	-1.05235E+000	3.57850E+000	10	...........
	3	0.053333	6.06724E-001	5.99101E-003	0.00000E+000	3.63488E-003	3.59960E-001	-1.05531E+000	3.57850E+000	10	...........
	4	0.066667	6.13595E-001	5.99503E-003	0.00000E+000	3.67852E-003	3.59960E-001	-1.06404E+000	3.57850E+000	10	...........
	5	0.08	6.20315E-001	5.99456E-003	0.00000E+000	3.71852E-003	3.59960E-001	-1.05258E+000	3.57850E+000	10	...........
	6	0.093333	6.26811E-001	5.99093E-003	0.00000E+000	3.75518E-003	3.59960E-001	-1.05523E+000	3.57850E+000	10	...........
	7	0.106667	6.33203E-001	5.99508E-003	0.00000E+000	3.79611E-003	3.59960E-001	-1.06389E+000	3.57850E+000	10	...........
	8	0.12	6.39493E-001	5.99084E-003	0.00000E+000	3.83110E-003	3.59960E-001	-1.05219E+000	3.57850E+000	10	...........
	9	0.133333	6.45708E-001	5.99341E-003	0.00000E+000	3.86999E-003	3.59960E-001	-1.05503E+000	3.57850E+000	10	...........
	10	0.146667	6.51908E-001	5.99488E-003	0.00000E+000	3.90811E-003	3.59960E-001	-1.06400E+000	3.57850E+000	10	...........
	11	0.16	6.58089E-001	5.99230E-003	0.00000E+000	3.94347E-003	3.59960E-001	-1.05241E+000	3.57850E+000	10	...........
	12	0.173333	6.64215E-001	5.99452E-003	0.00000E+000	3.98165E-003	3.59960E-001	-1.05489E+000	3.57850E+000	10	...........
	13	0.186667	6.70301E-001	5.99417E-003	0.00000E+000	4.01790E-003	3.59960E-001	-1.06382E+000	3.57850E+000	10	...........
	14	0.2	6.76297E-001	5.99184E-003	0.00000E+000	4.05226E-003	3.59960E-001	-1.05245E+000	3.57850E+000	10	...........
	15	0.213333	6.82303E-001	5.99499E-003	0.00000E+000	4.09040E-003	3.59960E-001	-1.05505E+000	3.57850E+000	10	...........
	16	0.226667	6.88232E-001	5.99664E-003	0.00000E+000	4.12708E-003	3.59960E-001	-1.06392E+000	3.57850E+000	10	...........
	17	0.24	6.94191E-001	5.99138E-003	0.00000E+000	4.15916E-003	3.59960E-001	-1.05221E+000	3.57850E+000	10	...........
	18	0.253333	7.00102E-001	5.99182E-003	0.00000E+000	4.19488E-003	3.59960E-001	-1.05472E+000	3.57850E+000	10	...........
	19	0.266667	7.06022E-001	5.99442E-003	0.00000E+000	4.23219E-003	3.59960E-001	-1.06406E+000	3.57850E+000	10	...........
	20	0.28	7.11917E-001	5.99343E-003	0.00000E+000	4.26683E-003	3.59960E-001	-1.05246E+000	3.57850E+000	10	...........
	21	0.293333	7.17847E-001	5.99450E-003	0.00000E+000	4.30314E-003	3.59960E-001	-1.05469E+000	3.57850E+000	10	...........
	22	0.306667	7.23756E-001	5.99427E-003	0.00000E+000	4.33839E-003	3.59960E-001	-1.06388E+000	3.57850E+000	10	...........
	23	0.32	7.29599E-001	5.99139E-003	0.00000E+000	4.37131E-003	3.59960E-001	-1.05221E+000	3.57850E+000	10	...........
	24	0.333333	7.35465E-001	5.99449E-003	0.00000E+000	4.40874E-003	3.59960E-001	-1.05467E+000	3.57850E+000	10	...........
	25	0.346667	7.41377E-001	5.99536E-003	0.00000E+000	4.44482E-003	3.59960E-001	-1.06375E+000	3.57782E+000	10	...........
	26	0.36	7.47242E-001	5.99330E-003	0.00000E+000	4.47844E-003	3.59960E-001	-1.05193E+000	3.57730E+000	10	...........
	27	0.373333	7.53089E-001	5.99707E-003	0.00000E+000	4.51632E-003	3.59960E-001	-1.05413E+000	3.57730E+000	10	...........
	28	0.386667	7.58942E-001	5.99333E-003	0.00000E+000	4.54859E-003	3.59960E-001	-1.06336E+000	3.57730E+000	10	...........
	29	0.4	7.64776E-001	5.99670E-003	0.00000E+000	4.58613E-003	3.59960E-001	-1.05194E+000	3.57730E+000	10	...........
	30	0.413333	7.70649E-001	5.99347E-003	0.00000E+000	4.61886E-003	3.59960E-001	-1.05428E+000	3.57730E+000	10	...........
	31	0.426667	7.76513E-001	5.99355E-003	0.00000E+000	4.65407E-003	3.59960E-001	-1.06332E+000	3.57730E+000	10	...........
	32	0.44	7.82380E-001	5.99514E-003	0.00000E+000	4.69047E-003	3.59960E-001	-1.05156E+000	3.57730E+000	10	...........
	33	0.453333	7.88198E-001	5.99360E-003	0.00000E+000	4.72415E-003	3.59960E-001	-1.05404E+000	3.57730E+000	10	...........
	34	0.466667	7.94075E-001	5.99439E-003	0.00000E+000	4.75999E-003	3.59960E-001	-1.06365E+000	3.57730E+000	10	...........
	35	0.48	7.99892E-001	5.98999E-003	0.00000E+000	4.79135E-003	3.59960E-001	-1.05190E+000	3.57730E+000	10	...........
	36	0.493333	8.05686E-001	5.99791E-003	0.00000E+000	4.83243E-003	3.59960E-001	-1.05391E+000	3.57730E+000	10	...........
	37	0.506667	8.11512E-001	5.99060E-003	0.00000E+000	4.86144E-003	3.59960E-001	-1.06333E+000	3.57730E+000	10	...........
	38	0.52	8.17323E-001	5.99285E-003	0.00000E+000	4.89809E-003	3.59960E-001	-1.05170E+000	3.57730E+000	10	...........
	39	0.533333	8.23185E-001	5.99283E-003	0.00000E+000	4.93321E-003	3.59960E-001	-1.05404E+000	3.57730E+000	10	...........
	40	0.546667	8.28956E-001	5.99654E-003	0.00000E+000	4.97087E-003	3.59960E-001	-1.06351E+000	3.57730E+000	10	...........
	41	0.56	8.34785E-001	5.99367E-003	0.00000E+000	5.00343E-003	3.59960E-001	-1.05172E+000	3.57730E+000	10	...........
	42	0.573333	8.40581E-001	5.99128E-003	0.00000E+000	5.03616E-003	3.59960E-001	-1.05378E+000	3.57730E+000	10	...........
	43	0.586667	8.46418E-001	5.98994E-003	0.00000E+000	5.07000E-003	3.59960E-001	-1.06343E+000	3.57730E+000	10	...........
	44	0.6	8.52203E-001	5.99281E-003	0.00000E+000	5.10709E-003	3.59960E-001	-1.05162E+000	3.57730E+000	10	...........
	45	0.613333	8.58014E-001	5.99261E-003	0.00000E+000	5.14175E-003	3.59960E-001	-1.05403E+000	3.57730E+000	10	...........
	46	0.626667	8.63796E-001	5.99773E-003	0.00000E+000	5.18082E-003	3.59960E-001	-1.06335E+000	3.57730E+000	10	...........
	47	0.64	8.69614E-001	5.99310E-003	0.00000E+000	5.21169E-003	3.59960E-001	-1.05156E+000	3.57730E+000	10	...........
	48	0.653333	8.75378E-001	5.99183E-003	0.00000E+000	5.24512E-003	3.59960E-001	-1.05373E+000	3.57730E+000	10	...........
	49	0.666667	8.81120E-001	5.99372E-003	0.00000E+000	5.28119E-003	3.59960E-001	-1.06354E+000	3.57730E+000	10	...........
	50	0.68	8.86915E-001	5.99557E-003	0.00000E+000	5.31756E-003	3.59960E-001	-1.05156E+000	3.57730E+000	10	...........
	51	0.693333	8.92603E-001	5.99289E-003	0.00000E+000	5.34928E-003	3.59960E-001	-1.05354E+000	3.57730E+000	10	...........
	52	0.706667	8.98336E-001	5.99414E-003	0.00000E+000	5.38475E-003	3.59960E-001	-1.06310E+000	3.57730E+000	10	...........
	53	0.72	9.04081E-001	5.99595E-003	0.00000E+000	5.42082E-003	3.59960E-001	-1.05153E+000	3.57730E+000	10	...........
	54	0.733333	9.09782E-001	5.99530E-003	0.00000E+000	5.45442E-003	3.59960E-001	-1.05356E+000	3.57730E+000	10	...........
	55	0.746667	9.15480E-001	5.99265E-003	0.00000E+000	5.48616E-003	3.59960E-001	-1.06324E+000	3.57730E+000	10	...........
	56	0.76	9.21187E-001	5.99326E-003	0.00000E+000	5.52091E-003	3.59960E-001	-1.05140E+000	3.57730E+000	10	...........
	57	0.773333	9.26867E-001	5.99250E-003	0.00000E+000	5.55425E-003	3.59960E-001	-1.05322E+000	3.57730E+000	10	...........
	58	0.786667	9.32475E-001	5.99565E-003	0.00000E+000	5.59079E-003	3.59960E-001	-1.06302E+000	3.57730E+000	10	...........
	59	0.8	9.38059E-001	5.99628E-003	0.00000E+000	5.62487E-003	3.59960E-001	-1.05162E+000	3.57730E+000	10	...........
	60	0.813333	9.43651E-001	5.99649E-003	0.00000E+000	5.65859E-003	3.59960E-001	-1.05335E+000	3.57730E+000	10	...........
	61	0.826667	9.49265E-001	5.99288E-003	0.00000E+000	5.68884E-003	3.59960E-001	-1.06312E+000	3.57730E+000	10	...........
	62	0.84	9.54796E-001	5.99166E-003	0.00000E+000	5.72082E-003	3.59960E-001	-1.05122E+000	3.57730E+000	10	...........
	63	0.853333	9.60299E-001	5.99374E-003	0.00000E+000	5.75578E-003	3.59960E-001	-1.05316E+000	3.57730E+000	10	...........
	64	0.866667	9.65773E-001	5.99251E-003	0.00000E+000	5.78740E-003	3.59960E-001	-1.06323E+000	3.57730E+000	10	...........
	65	0.88	9.71265E-001	5.99287E-003	0.00000E+000	5.82067E-003	3.59960E-001	-1.05163E+000	3.57730E+000	10	...........
	66	0.893333	9.76740E-001	5.99401E-003	0.00000E+000	5.85459E-003	3.59960E-001	-1.05338E+000	3.57730E+000	10	...........
	67	0.906667	9.82081E-001	5.99166E-003	0.00000E+000	5.88430E-003	3.59960E-001	-1.06327E+000	3.57730E+000	10	...........
	68	0.92	9.87468E-001	5.99346E-003	0.00000E+000	5.91835E-003	3.59960E-001	-1.05175E+000	3.57730E+000	10	...........
	69	0.933333	9.92800E-001	5.99355E-003	0.00000E+000	5.95040E-003	3.59960E-001	-1.05371E+000	3.57730E+000	10	...........
	70	0.946667	9.98120E-001	5.99278E-003	0.00000E+000	5.98151E-003	3.59960E-001	-1.06388E+000	3.57730E+000	10	...........
STARTTIMEOFFSET	QUANT	156.0833	Start Time Offset (s)

File: CHARGE_#80.DTA
EXPLAIN
TAG	PWR800_CHARGE
TITLE	LABEL	PWR Cyclic Charge Discharge (Cell) - Charge Step	Test &Identifier
DATE	LABEL	22-6-2017	Date
TIME	LABEL	15:38:37	Time
NOTES	NOTES	3	&Notes...
	supercap test cell
	0.6mg
	6M KOH
PSTAT	PSTAT	IFC5000-01520	Potentiostat
CAPACITY	QUANT	1.00000E-003	Capacity (A-hr)
CELLTYPE	SELECTOR	1	&Cell Type
WORKINGCONNECTION	SELECTOR	0	&Working Lead
MAXCHARGETIME	VARIABLEANDUNITS	1.00000E+002	s	1.00000E+002	second(s)	Max &Charge Time
CHARGECURRENT	QUANT	6.00000E-003	&Charge Current (A)
VOLTAGEFINISH	TWOPARAM	F	1.00000E-003	3.60000E+003	&Voltage Finish	 I (A) < 	Max Time(s)
SAMPLETIME	QUANT	1.00000E-002	Sa&mple Period (s)
CHARGESTOPAT1	MULTIPARAM	4	1.00000E+000	Charge Stop At &1	Voltage > Limit	V
CHARGESTOPAT2	MULTIPARAM	0	0.00000E+000	Charge Stop At &2	None	N/A
AESBHCSELECTOR	TOGGLE	F	Save Both Half Cells
IRCOMP	TOGGLE	F	IR &Measure
EOC	QUANT	0	Open Circuit (V)
SEQUENCER	TOGGLE	TRUE	Run as Sequence
PSTATMODEL	IQUANT	53	Pstat Model
PSTATSECTION	LABEL	IFC5000-01520	Pstat Section
PSTATSERIALNO	LABEL	01520	Pstat Serial Number
CTRLMODE	IQUANT	0	Control Mode
ELECTROMETER	IQUANT	1	RE=0 or CS=1
IESTAB	IQUANT	0	I/E Stability
CASPEED	IQUANT	4	Control Amp Speed
CONVENTION	IQUANT	1	Current Convention
ICHRANGE	IQUANT	2	Ich Range
ICHRANGEMODE	TOGGLE	T	Ich Auto Range
ICHOFFSETENABLE	TOGGLE	F	Ich Offset Enable
ICHOFFSET	QUANT	0	Ich Offset (V)
ICHFILTER	IQUANT	1	Ich Filter
VCHRANGE	IQUANT	2	Vch Range
VCHRANGEMODE	TOGGLE	T	Vch Auto Range
VCHOFFSETENABLE	TOGGLE	F	Vch Offset Enable
VCHOFFSET	QUANT	0	Vch Offset (V)
VCHFILTER	IQUANT	1	Vch Filter
IERANGELOWERLIMIT	IQUANT	9	I/E Range Lower Limit
IERANGEMODE	TOGGLE	F	I/E AutoRange
IERANGE	IQUANT	10	I/E Range
ACHSELECT	IQUANT	1	Ach Select
ACHRANGE	IQUANT	2	Ach Range
ACHOFFSETENABLE	TOGGLE	F	Ach Offset Enable
ACHOFFSET	QUANT	0	Ach Offset (V)
ACHFILTER	IQUANT	1	Ach Filter
CABLEID	IQUANT	14	Cable ID
DCCALDATE	LABEL	20-10-2016	DC Calibration Date
ACCALDATE	LABEL	12/3/2015	AC Calibration Date
FRAMEWORKVERSION	QUANT	7.01	Framework Version
INSTRUMENTVERSION	LABEL	4.00	Instrument Version
CURVE	TABLE	71
	Pt	T	Vf	Im	Vu	Pwr	Sig	Ach	Temp	IERange	Over
	#	s	V	A	V	W	V	V	deg C	#	bits
	0	0.013333	5.83576E-001	5.99529E-003	0.00000E+000	3.49871E-003	3.59960E-001	-1.06533E+000	3.57730E+000	10	...........
	1	0.026667	5.91791E-001	5.99413E-003	0.00000E+000	3.54727E-003	3.59960E-001	-1.05316E+000	3.57730E+000	10	...........
	2	0.04	5.99333E-001	5.99648E-003	0.00000E+000	3.59389E-003	3.59960E-001	-1.05391E+000	3.57730E+000	10	...........
	3	0.053333	6.06416E-001	5.99229E-003	0.00000E+000	3.63382E-003	3.59960E-001	-1.06498E+000	3.57730E+000	10	...........
	4	0.066667	6.13305E-001	5.99093E-003	0.00000E+000	3.67427E-003	3.59960E-001	-1.05322E+000	3.57730E+000	10	...........
	5	0.08	6.19985E-001	5.99403E-003	0.00000E+000	3.71621E-003	3.59960E-001	-1.05399E+000	3.57730E+000	10	...........
	6	0.093333	6.26481E-001	5.99237E-003	0.00000E+000	3.75411E-003	3.59960E-001	-1.06488E+000	3.57730E+000	10	...........
	7	0.106667	6.32876E-001	5.99687E-003	0.00000E+000	3.79527E-003	3.59960E-001	-1.05282E+000	3.57730E+000	10	...........
	8	0.12	6.39176E-001	5.99269E-003	0.00000E+000	3.83038E-003	3.59960E-001	-1.05385E+000	3.57730E+000	10	...........
	9	0.133333	6.45430E-001	5.98885E-003	0.00000E+000	3.86538E-003	3.59960E-001	-1.06526E+000	3.57730E+000	10	...........
	10	0.146667	6.51619E-001	5.99766E-003	0.00000E+000	3.90819E-003	3.59960E-001	-1.05323E+000	3.57730E+000	10	...........
	11	0.16	6.57755E-001	5.98998E-003	0.00000E+000	3.93994E-003	3.59960E-001	-1.05376E+000	3.57730E+000	10	...........
	12	0.173333	6.63841E-001	5.99094E-003	0.00000E+000	3.97703E-003	3.59960E-001	-1.06517E+000	3.57730E+000	10	...........
	13	0.186667	6.69924E-001	5.99534E-003	0.00000E+000	4.01642E-003	3.59960E-001	-1.05326E+000	3.57730E+000	10	...........
	14	0.2	6.75934E-001	5.99543E-003	0.00000E+000	4.05252E-003	3.59960E-001	-1.05404E+000	3.57730E+000	10	...........
	15	0.213333	6.81956E-001	5.99565E-003	0.00000E+000	4.08877E-003	3.59960E-001	-1.06511E+000	3.57730E+000	10	...........
	16	0.226667	6.87927E-001	5.99440E-003	0.00000E+000	4.12371E-003	3.59960E-001	-1.05288E+000	3.57730E+000	10	...........
	17	0.24	6.93882E-001	5.99505E-003	0.00000E+000	4.15986E-003	3.59960E-001	-1.05324E+000	3.57730E+000	10	...........
	18	0.253333	6.99800E-001	5.99445E-003	0.00000E+000	4.19492E-003	3.59960E-001	-1.06459E+000	3.57730E+000	10	...........
	19	0.266667	7.05738E-001	5.99294E-003	0.00000E+000	4.22944E-003	3.59960E-001	-1.05284E+000	3.57730E+000	10	...........
	20	0.28	7.11665E-001	5.99380E-003	0.00000E+000	4.26558E-003	3.59960E-001	-1.05331E+000	3.57730E+000	10	...........
	21	0.293333	7.17642E-001	5.99574E-003	0.00000E+000	4.30280E-003	3.59960E-001	-1.06438E+000	3.57730E+000	10	...........
	22	0.306667	7.23557E-001	5.99399E-003	0.00000E+000	4.33699E-003	3.59960E-001	-1.05251E+000	3.57730E+000	10	...........
	23	0.32	7.29405E-001	5.99405E-003	0.00000E+000	4.37209E-003	3.59960E-001	-1.05332E+000	3.57730E+000	10	...........
	24	0.333333	7.35244E-001	5.99386E-003	0.00000E+000	4.40695E-003	3.59960E-001	-1.06463E+000	3.57730E+000	10	...........
	25	0.346667	7.41123E-001	5.99664E-003	0.00000E+000	4.44425E-003	3.59960E-001	-1.05259E+000	3.57730E+000	10	...........
	26	0.36	7.47022E-001	5.99379E-003	0.00000E+000	4.47749E-003	3.59960E-001	-1.05315E+000	3.57730E+000	10	...........
	27	0.373333	7.52823E-001	5.99412E-003	0.00000E+000	4.51251E-003	3.59960E-001	-1.06432E+000	3.57730E+000	10	...........
	28	0.386667	7.58712E-001	5.99327E-003	0.00000E+000	4.54717E-003	3.59960E-001	-1.05293E+000	3.57730E+000	10	...........
	29	0.4	7.64523E-001	5.99570E-003	0.00000E+000	4.58385E-003	3.59960E-001	-1.05331E+000	3.57730E+000	10	...........
	30	0.413333	7.70397E-001	5.99628E-003	0.00000E+000	4.61952E-003	3.59960E-001	-1.06444E+000	3.57730E+000	10	...........
	31	0.426667	7.76253E-001	5.99066E-003	0.00000E+000	4.65027E-003	3.59960E-001	-1.05245E+000	3.57730E+000	10	...........
	32	0.44	7.82100E-001	5.99618E-003	0.00000E+000	4.68961E-003	3.59960E-001	-1.05291E+000	3.57730E+000	10	...........
	33	0.453333	7.87947E-001	5.99548E-003	0.00000E+000	4.72412E-003	3.59960E-001	-1.06437E+000	3.57730E+000	10	...........
	34	0.466667	7.93818E-001	5.99570E-003	0.00000E+000	4.75949E-003	3.59960E-001	-1.05277E+000	3.57730E+000	10	...........
	35	0.48	7.99660E-001	5.99496E-003	0.00000E+000	4.79393E-003	3.59960E-001	-1.05312E+000	3.57730E+000	10	...........
	36	0.493333	8.05445E-001	5.99527E-003	0.00000E+000	4.82886E-003	3.59960E-001	-1.06421E+000	3.57730E+000	10	...........
	37	0.506667	8.11245E-001	5.99521E-003	0.00000E+000	4.86359E-003	3.59960E-001	-1.05246E+000	3.57730E+000	10	...........
	38	0.52	8.17089E-001	5.99358E-003	0.00000E+000	4.89729E-003	3.59960E-001	-1.05304E+000	3.57730E+000	10	...........
	39	0.533333	8.22931E-001	5.99643E-003	0.00000E+000	4.93465E-003	3.59960E-001	-1.06447E+000	3.57730E+000	10	...........
	40	0.546667	8.28724E-001	5.99431E-003	0.00000E+000	4.96763E-003	3.59960E-001	-1.05268E+000	3.57730E+000	10	...........
	41	0.56	8.34539E-001	5.99475E-003	0.00000E+000	5.00285E-003	3.59960E-001	-1.05244E+000	3.57730E+000	10	...........
	42	0.573333	8.40360E-001	5.99134E-003	0.00000E+000	5.03488E-003	3.59960E-001	-1.06373E+000	3.57730E+000	10	...........
	43	0.586667	8.46218E-001	5.99225E-003	0.00000E+000	5.07075E-003	3.59960E-001	-1.05209E+000	3.57730E+000	10	...........
	44	0.6	8.51991E-001	5.99729E-003	0.00000E+000	5.10963E-003	3.59960E-001	-1.05251E+000	3.57730E+000	10	...........
	45	0.613333	8.57769E-001	5.99679E-003	0.00000E+000	5.14386E-003	3.59960E-001	-1.06401E+000	3.57730E+000	10	...........
	46	0.626667	8.63572E-001	5.99469E-003	0.00000E+000	5.17685E-003	3.59960E-001	-1.05198E+000	3.57730E+000	10	...........
	47	0.64	8.69363E-001	5.98907E-003	0.00000E+000	5.20667E-003	3.59960E-001	-1.05218E+000	3.57730E+000	10	...........
	48	0.653333	8.75132E-001	5.99201E-003	0.00000E+000	5.24379E-003	3.59960E-001	-1.06386E+000	3.57730E+000	10	...........
	49	0.666667	8.80921E-001	5.99574E-003	0.00000E+000	5.28178E-003	3.59960E-001	-1.05222E+000	3.57730E+000	10	...........
	50	0.68	8.86701E-001	5.99273E-003	0.00000E+000	5.31376E-003	3.59960E-001	-1.05234E+000	3.57850E+000	10	...........
	51	0.693333	8.92389E-001	5.99539E-003	0.00000E+000	5.35022E-003	3.59960E-001	-1.06370E+000	3.57850E+000	10	...........
	52	0.706667	8.98099E-001	5.99327E-003	0.00000E+000	5.38255E-003	3.59960E-001	-1.05177E+000	3.57850E+000	10	...........
	53	0.72	9.03793E-001	5.99254E-003	0.00000E+000	5.41602E-003	3.59960E-001	-1.05219E+000	3.57850E+000	10	...........
	54	0.733333	9.09507E-001	5.99361E-003	0.00000E+000	5.45123E-003	3.59960E-001	-1.06388E+000	3.57850E+000	10	...........
	55	0.746667	9.15190E-001	5.99224E-003	0.00000E+000	5.48404E-003	3.59960E-001	-1.05203E+000	3.57850E+000	10	...........
	56	0.76	9.20896E-001	5.99184E-003	0.00000E+000	5.51786E-003	3.59960E-001	-1.05192E+000	3.57850E+000	10	...........
	57	0.773333	9.26603E-001	5.99179E-003	0.00000E+000	5.55201E-003	3.59960E-001	-1.06361E+000	3.57850E+000	10	...........
	58	0.786667	9.32229E-001	5.99399E-003	0.00000E+000	5.58777E-003	3.59960E-001	-1.05231E+000	3.57850E+000	10	...........
	59	0.8	9.37822E-001	5.99430E-003	0.00000E+000	5.62159E-003	3.59960E-001	-1.05233E+000	3.57850E+000	10	...........
	60	0.813333	9.43429E-001	5.99246E-003	0.00000E+000	5.65346E-003	3.59960E-001	-1.06383E+000	3.57850E+000	10	...........
	61	0.826667	9.49000E-001	5.99556E-003	0.00000E+000	5.68979E-003	3.59960E-001	-1.05214E+000	3.57850E+000	10	...........
	62	0.84	9.54540E-001	5.99459E-003	0.00000E+000	5.72208E-003	3.59960E-001	-1.05194E+000	3.57850E+000	10	...........
	63	0.853333	9.60038E-001	5.99277E-003	0.00000E+000	5.75329E-003	3.59960E-001	-1.06380E+000	3.57850E+000	10	...........
	64	0.866667	9.65540E-001	5.99174E-003	0.00000E+000	5.78526E-003	3.59960E-001	-1.05236E+000	3.57850E+000	10	...........
	65	0.88	9.71052E-001	5.99203E-003	0.00000E+000	5.81857E-003	3.59960E-001	-1.05189E+000	3.57850E+000	10	...........
	66	0.893333	9.76512E-001	5.99357E-003	0.00000E+000	5.85279E-003	3.59960E-001	-1.06330E+000	3.57850E+000	10	...........
	67	0.906667	9.81909E-001	5.99400E-003	0.00000E+000	5.88556E-003	3.59960E-001	-1.05158E+000	3.57850E+000	10	...........
	68	0.92	9.87280E-001	5.99570E-003	0.00000E+000	5.91944E-003	3.59960E-001	-1.05158E+000	3.57850E+000	10	...........
	69	0.933333	9.92637E-001	5.99401E-003	0.00000E+000	5.94988E-003	3.59960E-001	-1.06354E+000	3.57850E+000	10	...........
	70	0.946667	9.97958E-001	5.99286E-003	0.00000E+000	5.98063E-003	3.59960E-001	-1.05159E+000	3.57850E+000	10	...........
STARTTIMEOFFSET	QUANT	157.965	Start Time Offset (s)