Folder: Tesis/Data/CV_CRGO300517_1/PWRCCD_CRGO300517_1/CHARGE_DISCHARGE (part 23)

File: CHARGE_#45.DTA
EXPLAIN
TAG	PWR800_CHARGE
TITLE	LABEL	PWR Cyclic Charge Discharge (Cell) - Charge Step	Test &Identifier
DATE	LABEL	22-6-2017	Date
TIME	LABEL	15:37:02	Time
NOTES	NOTES	3	&Notes...
	supercap test cell
	0.6mg
	6M KOH
PSTAT	PSTAT	IFC5000-01520	Potentiostat
CAPACITY	QUANT	1.00000E-003	Capacity (A-hr)
CELLTYPE	SELECTOR	1	&Cell Type
WORKINGCONNECTION	SELECTOR	0	&Working Lead
MAXCHARGETIME	VARIABLEANDUNITS	1.00000E+002	s	1.00000E+002	second(s)	Max &Charge Time
CHARGECURRENT	QUANT	6.00000E-003	&Charge Current (A)
VOLTAGEFINISH	TWOPARAM	F	1.00000E-003	3.60000E+003	&Voltage Finish	 I (A) < 	Max Time(s)
SAMPLETIME	QUANT	1.00000E-002	Sa&mple Period (s)
CHARGESTOPAT1	MULTIPARAM	4	1.00000E+000	Charge Stop At &1	Voltage > Limit	V
CHARGESTOPAT2	MULTIPARAM	0	0.00000E+000	Charge Stop At &2	None	N/A
AESBHCSELECTOR	TOGGLE	F	Save Both Half Cells
IRCOMP	TOGGLE	F	IR &Measure
EOC	QUANT	0	Open Circuit (V)
SEQUENCER	TOGGLE	TRUE	Run as Sequence
PSTATMODEL	IQUANT	53	Pstat Model
PSTATSECTION	LABEL	IFC5000-01520	Pstat Section
PSTATSERIALNO	LABEL	01520	Pstat Serial Number
CTRLMODE	IQUANT	0	Control Mode
ELECTROMETER	IQUANT	1	RE=0 or CS=1
IESTAB	IQUANT	0	I/E Stability
CASPEED	IQUANT	4	Control Amp Speed
CONVENTION	IQUANT	1	Current Convention
ICHRANGE	IQUANT	2	Ich Range
ICHRANGEMODE	TOGGLE	T	Ich Auto Range
ICHOFFSETENABLE	TOGGLE	F	Ich Offset Enable
ICHOFFSET	QUANT	0	Ich Offset (V)
ICHFILTER	IQUANT	1	Ich Filter
VCHRANGE	IQUANT	2	Vch Range
VCHRANGEMODE	TOGGLE	T	Vch Auto Range
VCHOFFSETENABLE	TOGGLE	F	Vch Offset Enable
VCHOFFSET	QUANT	0	Vch Offset (V)
VCHFILTER	IQUANT	1	Vch Filter
IERANGELOWERLIMIT	IQUANT	9	I/E Range Lower Limit
IERANGEMODE	TOGGLE	F	I/E AutoRange
IERANGE	IQUANT	10	I/E Range
ACHSELECT	IQUANT	1	Ach Select
ACHRANGE	IQUANT	2	Ach Range
ACHOFFSETENABLE	TOGGLE	F	Ach Offset Enable
ACHOFFSET	QUANT	0	Ach Offset (V)
ACHFILTER	IQUANT	1	Ach Filter
CABLEID	IQUANT	14	Cable ID
DCCALDATE	LABEL	20-10-2016	DC Calibration Date
ACCALDATE	LABEL	12/3/2015	AC Calibration Date
FRAMEWORKVERSION	QUANT	7.01	Framework Version
INSTRUMENTVERSION	LABEL	4.00	Instrument Version
CURVE	TABLE	75
	Pt	T	Vf	Im	Vu	Pwr	Sig	Ach	Temp	IERange	Over
	#	s	V	A	V	W	V	V	deg C	#	bits
	0	0.013333	5.72032E-001	5.99241E-003	0.00000E+000	3.42785E-003	3.59960E-001	-1.03419E+000	3.57860E+000	10	...........
	1	0.026667	5.80078E-001	5.99532E-003	0.00000E+000	3.47775E-003	3.59960E-001	-1.03258E+000	3.57860E+000	10	...........
	2	0.04	5.87513E-001	5.99725E-003	0.00000E+000	3.52346E-003	3.59960E-001	-1.04508E+000	3.57860E+000	10	...........
	3	0.053333	5.94543E-001	5.99555E-003	0.00000E+000	3.56461E-003	3.59960E-001	-1.03422E+000	3.57860E+000	10	...........
	4	0.066667	6.01272E-001	5.99431E-003	0.00000E+000	3.60421E-003	3.59960E-001	-1.03276E+000	3.57860E+000	10	...........
	5	0.08	6.07785E-001	5.99327E-003	0.00000E+000	3.64262E-003	3.59960E-001	-1.04514E+000	3.57860E+000	10	...........
	6	0.093333	6.14276E-001	5.99403E-003	0.00000E+000	3.68199E-003	3.59960E-001	-1.03400E+000	3.57860E+000	10	...........
	7	0.106667	6.20597E-001	5.99177E-003	0.00000E+000	3.71848E-003	3.59960E-001	-1.03249E+000	3.57860E+000	10	...........
	8	0.12	6.26799E-001	5.99383E-003	0.00000E+000	3.75693E-003	3.59960E-001	-1.04508E+000	3.57860E+000	10	...........
	9	0.133333	6.32903E-001	5.99250E-003	0.00000E+000	3.79267E-003	3.59960E-001	-1.03381E+000	3.57860E+000	10	...........
	10	0.146667	6.39001E-001	5.99640E-003	0.00000E+000	3.83170E-003	3.59960E-001	-1.03198E+000	3.57860E+000	10	...........
	11	0.16	6.45039E-001	5.99547E-003	0.00000E+000	3.86731E-003	3.59960E-001	-1.04438E+000	3.57860E+000	10	...........
	12	0.173333	6.51055E-001	5.99667E-003	0.00000E+000	3.90416E-003	3.59960E-001	-1.03346E+000	3.57860E+000	10	...........
	13	0.186667	6.56945E-001	5.99317E-003	0.00000E+000	3.93718E-003	3.59960E-001	-1.03209E+000	3.57860E+000	10	...........
	14	0.2	6.62883E-001	5.99382E-003	0.00000E+000	3.97320E-003	3.59960E-001	-1.04451E+000	3.57860E+000	10	...........
	15	0.213333	6.68782E-001	5.99295E-003	0.00000E+000	4.00797E-003	3.59960E-001	-1.03352E+000	3.57860E+000	10	...........
	16	0.226667	6.74581E-001	5.99712E-003	0.00000E+000	4.04554E-003	3.59960E-001	-1.03199E+000	3.57860E+000	10	...........
	17	0.24	6.80411E-001	5.99648E-003	0.00000E+000	4.08007E-003	3.59960E-001	-1.04449E+000	3.57860E+000	10	...........
	18	0.253333	6.86197E-001	5.99398E-003	0.00000E+000	4.11305E-003	3.59960E-001	-1.03349E+000	3.57860E+000	10	...........
	19	0.266667	6.92013E-001	5.99208E-003	0.00000E+000	4.14660E-003	3.59960E-001	-1.03219E+000	3.57860E+000	10	...........
	20	0.28	6.97842E-001	5.99521E-003	0.00000E+000	4.18371E-003	3.59960E-001	-1.04452E+000	3.57860E+000	10	...........
	21	0.293333	7.03622E-001	5.99374E-003	0.00000E+000	4.21733E-003	3.59960E-001	-1.03332E+000	3.57860E+000	10	...........
	22	0.306667	7.09388E-001	5.99501E-003	0.00000E+000	4.25279E-003	3.59960E-001	-1.03180E+000	3.57860E+000	10	...........
	23	0.32	7.15137E-001	5.99307E-003	0.00000E+000	4.28587E-003	3.59960E-001	-1.04440E+000	3.57860E+000	10	...........
	24	0.333333	7.20892E-001	5.99206E-003	0.00000E+000	4.31963E-003	3.59960E-001	-1.03353E+000	3.57860E+000	10	...........
	25	0.346667	7.26648E-001	5.99349E-003	0.00000E+000	4.35516E-003	3.59960E-001	-1.03194E+000	3.57860E+000	10	...........
	26	0.36	7.32408E-001	5.99028E-003	0.00000E+000	4.38732E-003	3.59960E-001	-1.04444E+000	3.57860E+000	10	...........
	27	0.373333	7.38092E-001	5.99160E-003	0.00000E+000	4.42235E-003	3.59960E-001	-1.03345E+000	3.57860E+000	10	...........
	28	0.386667	7.43853E-001	5.99624E-003	0.00000E+000	4.46032E-003	3.59960E-001	-1.03205E+000	3.57860E+000	10	...........
	29	0.4	7.49565E-001	5.99224E-003	0.00000E+000	4.49157E-003	3.59960E-001	-1.04464E+000	3.57860E+000	10	...........
	30	0.413333	7.55317E-001	5.99237E-003	0.00000E+000	4.52614E-003	3.59960E-001	-1.03333E+000	3.57860E+000	10	...........
	31	0.426667	7.61028E-001	5.99140E-003	0.00000E+000	4.55963E-003	3.59960E-001	-1.03175E+000	3.57860E+000	10	...........
	32	0.44	7.66729E-001	5.99159E-003	0.00000E+000	4.59393E-003	3.59960E-001	-1.04424E+000	3.57860E+000	10	...........
	33	0.453333	7.72445E-001	5.99277E-003	0.00000E+000	4.62908E-003	3.59960E-001	-1.03322E+000	3.57860E+000	10	...........
	34	0.466667	7.78179E-001	5.98876E-003	0.00000E+000	4.66033E-003	3.59960E-001	-1.03149E+000	3.57860E+000	10	...........
	35	0.48	7.83922E-001	5.99409E-003	0.00000E+000	4.69890E-003	3.59960E-001	-1.04385E+000	3.57860E+000	10	...........
	36	0.493333	7.89630E-001	5.99110E-003	0.00000E+000	4.73075E-003	3.59960E-001	-1.03292E+000	3.57815E+000	10	...........
	37	0.506667	7.95318E-001	5.99274E-003	0.00000E+000	4.76613E-003	3.59960E-001	-1.03123E+000	3.57800E+000	10	...........
	38	0.52	8.01054E-001	5.99358E-003	0.00000E+000	4.80118E-003	3.59960E-001	-1.04382E+000	3.57800E+000	10	...........
	39	0.533333	8.06745E-001	5.99489E-003	0.00000E+000	4.83635E-003	3.59960E-001	-1.03298E+000	3.57800E+000	10	...........
	40	0.546667	8.12455E-001	5.99392E-003	0.00000E+000	4.86979E-003	3.59960E-001	-1.03123E+000	3.57800E+000	10	...........
	41	0.56	8.18188E-001	5.99348E-003	0.00000E+000	4.90379E-003	3.59960E-001	-1.04367E+000	3.57800E+000	10	...........
	42	0.573333	8.23885E-001	5.99238E-003	0.00000E+000	4.93704E-003	3.59960E-001	-1.03275E+000	3.57800E+000	10	...........
[...]
	45	0.613333	8.40996E-001	5.99311E-003	0.00000E+000	5.04019E-003	3.59960E-001	-1.03291E+000	3.57800E+000	10	...........
	46	0.626667	8.46740E-001	5.99648E-003	0.00000E+000	5.07746E-003	3.59960E-001	-1.03126E+000	3.57800E+000	10	...........
	47	0.64	8.52428E-001	5.99186E-003	0.00000E+000	5.10763E-003	3.59960E-001	-1.04371E+000	3.57800E+000	10	...........
	48	0.653333	8.58133E-001	5.99557E-003	0.00000E+000	5.14500E-003	3.59960E-001	-1.03289E+000	3.57800E+000	10	...........
	49	0.666667	8.63795E-001	5.99511E-003	0.00000E+000	5.17854E-003	3.59960E-001	-1.03151E+000	3.57800E+000	10	...........
	50	0.68	8.69497E-001	5.99589E-003	0.00000E+000	5.21341E-003	3.59960E-001	-1.04388E+000	3.57800E+000	10	...........
	51	0.693333	8.75139E-001	5.99546E-003	0.00000E+000	5.24686E-003	3.59960E-001	-1.03279E+000	3.57800E+000	10	...........
	52	0.706667	8.80811E-001	5.99380E-003	0.00000E+000	5.27941E-003	3.59960E-001	-1.03142E+000	3.57800E+000	10	...........
	53	0.72	8.86497E-001	5.99535E-003	0.00000E+000	5.31486E-003	3.59960E-001	-1.04404E+000	3.57800E+000	10	...........
	54	0.733333	8.92132E-001	5.99982E-003	0.00000E+000	5.35263E-003	3.59960E-001	-1.03289E+000	3.57800E+000	10	...........
	55	0.746667	8.97832E-001	5.99585E-003	0.00000E+000	5.38327E-003	3.59960E-001	-1.03137E+000	3.57800E+000	10	...........
	56	0.76	9.03423E-001	5.99387E-003	0.00000E+000	5.41501E-003	3.59960E-001	-1.04369E+000	3.57800E+000	10	...........
	57	0.773333	9.09068E-001	5.99518E-003	0.00000E+000	5.45002E-003	3.59960E-001	-1.03252E+000	3.57800E+000	10	...........
	58	0.786667	9.14644E-001	5.99425E-003	0.00000E+000	5.48260E-003	3.59960E-001	-1.03091E+000	3.57800E+000	10	...........
	59	0.8	9.20259E-001	5.99285E-003	0.00000E+000	5.51498E-003	3.59960E-001	-1.04342E+000	3.57800E+000	10	...........
	60	0.813333	9.25857E-001	5.99316E-003	0.00000E+000	5.54880E-003	3.59960E-001	-1.03241E+000	3.57800E+000	10	...........
	61	0.826667	9.31426E-001	5.99118E-003	0.00000E+000	5.58034E-003	3.59960E-001	-1.03091E+000	3.57800E+000	10	...........
	62	0.84	9.36936E-001	5.99336E-003	0.00000E+000	5.61540E-003	3.59960E-001	-1.04352E+000	3.57800E+000	10	...........
	63	0.853333	9.42480E-001	5.99188E-003	0.00000E+000	5.64723E-003	3.59960E-001	-1.03275E+000	3.57800E+000	10	...........
	64	0.866667	9.48041E-001	5.99285E-003	0.00000E+000	5.68147E-003	3.59960E-001	-1.03102E+000	3.57800E+000	10	...........
	65	0.88	9.53524E-001	5.99504E-003	0.00000E+000	5.71642E-003	3.59960E-001	-1.04343E+000	3.57800E+000	10	...........
	66	0.893333	9.58985E-001	5.99439E-003	0.00000E+000	5.74853E-003	3.59960E-001	-1.03228E+000	3.57800E+000	10	...........
	67	0.906667	9.64405E-001	5.99414E-003	0.00000E+000	5.78077E-003	3.59960E-001	-1.03106E+000	3.57800E+000	10	...........
	68	0.92	9.69818E-001	5.99063E-003	0.00000E+000	5.80982E-003	3.59960E-001	-1.04351E+000	3.57800E+000	10	...........
	69	0.933333	9.75255E-001	5.99479E-003	0.00000E+000	5.84645E-003	3.59960E-001	-1.03242E+000	3.57800E+000	10	...........
	70	0.946667	9.80612E-001	5.99335E-003	0.00000E+000	5.87715E-003	3.59960E-001	-1.03092E+000	3.57800E+000	10	...........
	71	0.96	9.85930E-001	5.99505E-003	0.00000E+000	5.91070E-003	3.59960E-001	-1.04322E+000	3.57800E+000	10	...........
	72	0.97333	9.91201E-001	5.99512E-003	0.00000E+000	5.94236E-003	3.59960E-001	-1.03229E+000	3.57800E+000	10	...........
	73	0.98667	9.96506E-001	5.99457E-003	0.00000E+000	5.97363E-003	3.59960E-001	-1.03109E+000	3.57800E+000	10	...........
	74	0.99	9.99789E-001	5.99625E-003	0.00000E+000	5.99499E-003	3.59960E-001	-1.04282E+000	3.57800E+000	10	...........
STARTTIMEOFFSET	QUANT	90.75	Start Time Offset (s)

File: CHARGE_#46.DTA
EXPLAIN
TAG	PWR800_CHARGE
TITLE	LABEL	PWR Cyclic Charge Discharge (Cell) - Charge Step	Test &Identifier
DATE	LABEL	22-6-2017	Date
TIME	LABEL	15:37:05	Time
NOTES	NOTES	3	&Notes...
	supercap test cell
	0.6mg
	6M KOH
PSTAT	PSTAT	IFC5000-01520	Potentiostat
CAPACITY	QUANT	1.00000E-003	Capacity (A-hr)
CELLTYPE	SELECTOR	1	&Cell Type
WORKINGCONNECTION	SELECTOR	0	&Working Lead
MAXCHARGETIME	VARIABLEANDUNITS	1.00000E+002	s	1.00000E+002	second(s)	Max &Charge Time
CHARGECURRENT	QUANT	6.00000E-003	&Charge Current (A)
VOLTAGEFINISH	TWOPARAM	F	1.00000E-003	3.60000E+003	&Voltage Finish	 I (A) < 	Max Time(s)
SAMPLETIME	QUANT	1.00000E-002	Sa&mple Period (s)
CHARGESTOPAT1	MULTIPARAM	4	1.00000E+000	Charge Stop At &1	Voltage > Limit	V
CHARGESTOPAT2	MULTIPARAM	0	0.00000E+000	Charge Stop At &2	None	N/A
AESBHCSELECTOR	TOGGLE	F	Save Both Half Cells
IRCOMP	TOGGLE	F	IR &Measure
EOC	QUANT	0	Open Circuit (V)
SEQUENCER	TOGGLE	TRUE	Run as Sequence
PSTATMODEL	IQUANT	53	Pstat Model
PSTATSECTION	LABEL	IFC5000-01520	Pstat Section
PSTATSERIALNO	LABEL	01520	Pstat Serial Number
CTRLMODE	IQUANT	0	Control Mode
ELECTROMETER	IQUANT	1	RE=0 or CS=1
IESTAB	IQUANT	0	I/E Stability
CASPEED	IQUANT	4	Control Amp Speed
CONVENTION	IQUANT	1	Current Convention
ICHRANGE	IQUANT	2	Ich Range
ICHRANGEMODE	TOGGLE	T	Ich Auto Range
ICHOFFSETENABLE	TOGGLE	F	Ich Offset Enable
ICHOFFSET	QUANT	0	Ich Offset (V)
ICHFILTER	IQUANT	1	Ich Filter
VCHRANGE	IQUANT	2	Vch Range
VCHRANGEMODE	TOGGLE	T	Vch Auto Range
VCHOFFSETENABLE	TOGGLE	F	Vch Offset Enable
VCHOFFSET	QUANT	0	Vch Offset (V)
VCHFILTER	IQUANT	1	Vch Filter
IERANGELOWERLIMIT	IQUANT	9	I/E Range Lower Limit
IERANGEMODE	TOGGLE	F	I/E AutoRange
IERANGE	IQUANT	10	I/E Range
ACHSELECT	IQUANT	1	Ach Select
ACHRANGE	IQUANT	2	Ach Range
ACHOFFSETENABLE	TOGGLE	F	Ach Offset Enable
ACHOFFSET	QUANT	0	Ach Offset (V)
ACHFILTER	IQUANT	1	Ach Filter
CABLEID	IQUANT	14	Cable ID
DCCALDATE	LABEL	20-10-2016	DC Calibration Date
ACCALDATE	LABEL	12/3/2015	AC Calibration Date
FRAMEWORKVERSION	QUANT	7.01	Framework Version
INSTRUMENTVERSION	LABEL	4.00	Instrument Version
CURVE	TABLE	75
	Pt	T	Vf	Im	Vu	Pwr	Sig	Ach	Temp	IERange	Over
	#	s	V	A	V	W	V	V	deg C	#	bits
	0	0.013333	5.73037E-001	5.99341E-003	0.00000E+000	3.43445E-003	3.59960E-001	-1.03214E+000	3.57740E+000	10	...........
	1	0.026667	5.81045E-001	5.99353E-003	0.00000E+000	3.48251E-003	3.59960E-001	-1.03972E+000	3.57740E+000	10	...........
	2	0.04	5.88458E-001	5.99385E-003	0.00000E+000	3.52713E-003	3.59960E-001	-1.04114E+000	3.57740E+000	10	...........
	3	0.053333	5.95463E-001	5.98885E-003	0.00000E+000	3.56614E-003	3.59960E-001	-1.03196E+000	3.57740E+000	10	...........
	4	0.066667	6.02196E-001	5.99337E-003	0.00000E+000	3.60918E-003	3.59960E-001	-1.03939E+000	3.57740E+000	10	...........
	5	0.08	6.08697E-001	5.99685E-003	0.00000E+000	3.65026E-003	3.59960E-001	-1.04066E+000	3.57740E+000	10	...........
	6	0.093333	6.15132E-001	5.99079E-003	0.00000E+000	3.68512E-003	3.59960E-001	-1.03218E+000	3.57740E+000	10	...........
	7	0.106667	6.21447E-001	5.99755E-003	0.00000E+000	3.72715E-003	3.59960E-001	-1.03963E+000	3.57740E+000	10	...........
	8	0.12	6.27646E-001	5.99483E-003	0.00000E+000	3.76264E-003	3.59960E-001	-1.04080E+000	3.57740E+000	10	...........
	9	0.133333	6.33780E-001	5.99406E-003	0.00000E+000	3.79892E-003	3.59960E-001	-1.03179E+000	3.57740E+000	10	...........
	10	0.146667	6.39847E-001	5.99492E-003	0.00000E+000	3.83583E-003	3.59960E-001	-1.03916E+000	3.57740E+000	10	...........
	11	0.16	6.45892E-001	5.99521E-003	0.00000E+000	3.87226E-003	3.59960E-001	-1.04086E+000	3.57740E+000	10	...........
	12	0.173333	6.51835E-001	5.99022E-003	0.00000E+000	3.90464E-003	3.59960E-001	-1.03211E+000	3.57740E+000	10	...........
	13	0.186667	6.57812E-001	5.99266E-003	0.00000E+000	3.94205E-003	3.59960E-001	-1.03943E+000	3.57740E+000	10	...........
	14	0.2	6.63756E-001	5.99423E-003	0.00000E+000	3.97871E-003	3.59960E-001	-1.04064E+000	3.57740E+000	10	...........
	15	0.213333	6.69654E-001	5.99421E-003	0.00000E+000	4.01405E-003	3.59960E-001	-1.03191E+000	3.57740E+000	10	...........
	16	0.226667	6.75484E-001	5.99154E-003	0.00000E+000	4.04719E-003	3.59960E-001	-1.03961E+000	3.57740E+000	10	...........
	17	0.24	6.81357E-001	5.99354E-003	0.00000E+000	4.08374E-003	3.59960E-001	-1.04068E+000	3.57740E+000	10	...........
	18	0.253333	6.87130E-001	5.99175E-003	0.00000E+000	4.11711E-003	3.59960E-001	-1.03193E+000	3.57740E+000	10	...........
	19	0.266667	6.92982E-001	5.99346E-003	0.00000E+000	4.15336E-003	3.59960E-001	-1.03906E+000	3.57740E+000	10	...........
	20	0.28	6.98751E-001	5.99776E-003	0.00000E+000	4.19094E-003	3.59960E-001	-1.04019E+000	3.57740E+000	10	...........
	21	0.293333	7.04508E-001	5.99408E-003	0.00000E+000	4.22288E-003	3.59960E-001	-1.03161E+000	3.57740E+000	10	...........
	22	0.306667	7.10277E-001	5.99289E-003	0.00000E+000	4.25661E-003	3.59960E-001	-1.03926E+000	3.57740E+000	10	...........
	23	0.32	7.16063E-001	5.99158E-003	0.00000E+000	4.29035E-003	3.59960E-001	-1.03990E+000	3.57740E+000	10	...........
	24	0.333333	7.21842E-001	5.99534E-003	0.00000E+000	4.32769E-003	3.59960E-001	-1.03131E+000	3.57740E+000	10	...........
	25	0.346667	7.27582E-001	5.99187E-003	0.00000E+000	4.35958E-003	3.59960E-001	-1.03899E+000	3.57740E+000	10	...........
	26	0.36	7.33323E-001	5.99589E-003	0.00000E+000	4.39692E-003	3.59960E-001	-1.04002E+000	3.57740E+000	10	...........
	27	0.373333	7.39030E-001	5.99228E-003	0.00000E+000	4.42847E-003	3.59960E-001	-1.03155E+000	3.57740E+000	10	...........
	28	0.386667	7.44800E-001	5.99334E-003	0.00000E+000	4.46384E-003	3.59960E-001	-1.03905E+000	3.57740E+000	10	...........
	29	0.4	7.50537E-001	5.99329E-003	0.00000E+000	4.49819E-003	3.59960E-001	-1.03997E+000	3.57740E+000	10	...........
	30	0.413333	7.56274E-001	5.99460E-003	0.00000E+000	4.53356E-003	3.59960E-001	-1.03143E+000	3.57740E+000	10	...........
	31	0.426667	7.62000E-001	5.99506E-003	0.00000E+000	4.56824E-003	3.59960E-001	-1.03904E+000	3.57740E+000	10	...........
	32	0.44	7.67679E-001	5.99301E-003	0.00000E+000	4.60071E-003	3.59960E-001	-1.04010E+000	3.57740E+000	10	...........
	33	0.453333	7.73420E-001	5.99334E-003	0.00000E+000	4.63537E-003	3.59960E-001	-1.03126E+000	3.57740E+000	10	...........
	34	0.466667	7.79152E-001	5.99659E-003	0.00000E+000	4.67225E-003	3.59960E-001	-1.03892E+000	3.57740E+000	10	...........
	35	0.48	7.84909E-001	5.99480E-003	0.00000E+000	4.70538E-003	3.59960E-001	-1.04007E+000	3.57740E+000	10	...........
	36	0.493333	7.90597E-001	5.99580E-003	0.00000E+000	4.74026E-003	3.59960E-001	-1.03151E+000	3.57740E+000	10	...........
	37	0.506667	7.96326E-001	5.99101E-003	0.00000E+000	4.77080E-003	3.59960E-001	-1.03920E+000	3.57740E+000	10	...........
	38	0.52	8.02038E-001	5.99175E-003	0.00000E+000	4.80561E-003	3.59960E-001	-1.04008E+000	3.57740E+000	10	...........
	39	0.533333	8.07740E-001	5.99305E-003	0.00000E+000	4.84083E-003	3.59960E-001	-1.03122E+000	3.57740E+000	10	...........
	40	0.546667	8.13440E-001	5.99171E-003	0.00000E+000	4.87389E-003	3.59960E-001	-1.03886E+000	3.57740E+000	10	...........
	41	0.56	8.19166E-001	5.99185E-003	0.00000E+000	4.90832E-003	3.59960E-001	-1.03992E+000	3.57740E+000	10	...........
	42	0.573333	8.24872E-001	5.99162E-003	0.00000E+000	4.94232E-003	3.59960E-001	-1.03147E+000	3.57740E+000	10	...........
[...]
	45	0.613333	8.41996E-001	5.99396E-003	0.00000E+000	5.04689E-003	3.59960E-001	-1.03077E+000	3.57740E+000	10	...........
	46	0.626667	8.47746E-001	5.99662E-003	0.00000E+000	5.08361E-003	3.59960E-001	-1.03875E+000	3.57740E+000	10	...........
	47	0.64	8.53461E-001	5.99592E-003	0.00000E+000	5.11728E-003	3.59960E-001	-1.03970E+000	3.57740E+000	10	...........
	48	0.653333	8.59104E-001	5.99518E-003	0.00000E+000	5.15048E-003	3.59960E-001	-1.03096E+000	3.57740E+000	10	...........
	49	0.666667	8.64798E-001	5.99579E-003	0.00000E+000	5.18515E-003	3.59960E-001	-1.03839E+000	3.57740E+000	10	...........
	50	0.68	8.70516E-001	5.99230E-003	0.00000E+000	5.21639E-003	3.59960E-001	-1.03935E+000	3.57740E+000	10	...........
	51	0.693333	8.76239E-001	5.99565E-003	0.00000E+000	5.25362E-003	3.59960E-001	-1.03107E+000	3.57740E+000	10	...........
	52	0.706667	8.81889E-001	5.99540E-003	0.00000E+000	5.28728E-003	3.59960E-001	-1.03876E+000	3.57740E+000	10	...........
	53	0.72	8.87581E-001	5.99343E-003	0.00000E+000	5.31965E-003	3.59960E-001	-1.03932E+000	3.57740E+000	10	...........
	54	0.733333	8.93224E-001	5.99532E-003	0.00000E+000	5.35517E-003	3.59960E-001	-1.03084E+000	3.57800E+000	10	...........
	55	0.746667	8.98882E-001	5.98994E-003	0.00000E+000	5.38425E-003	3.59960E-001	-1.03863E+000	3.57860E+000	10	...........
	56	0.76	9.04516E-001	5.99155E-003	0.00000E+000	5.41945E-003	3.59960E-001	-1.03940E+000	3.57860E+000	10	...........
	57	0.773333	9.10158E-001	5.99127E-003	0.00000E+000	5.45300E-003	3.59960E-001	-1.03093E+000	3.57860E+000	10	...........
	58	0.786667	9.15769E-001	5.99584E-003	0.00000E+000	5.49080E-003	3.59960E-001	-1.03867E+000	3.57860E+000	10	...........
	59	0.8	9.21424E-001	5.99402E-003	0.00000E+000	5.52303E-003	3.59960E-001	-1.03909E+000	3.57860E+000	10	...........
	60	0.813333	9.26987E-001	5.99514E-003	0.00000E+000	5.55741E-003	3.59960E-001	-1.03096E+000	3.57860E+000	10	...........
	61	0.826667	9.32535E-001	5.99614E-003	0.00000E+000	5.59161E-003	3.59960E-001	-1.03880E+000	3.57860E+000	10	...........
	62	0.84	9.38049E-001	5.99061E-003	0.00000E+000	5.61948E-003	3.59960E-001	-1.03951E+000	3.57860E+000	10	...........
	63	0.853333	9.43596E-001	5.99489E-003	0.00000E+000	5.65675E-003	3.59960E-001	-1.03101E+000	3.57860E+000	10	...........
	64	0.866667	9.49121E-001	5.99196E-003	0.00000E+000	5.68709E-003	3.59960E-001	-1.03854E+000	3.57860E+000	10	...........
	65	0.88	9.54577E-001	5.98931E-003	0.00000E+000	5.71726E-003	3.59960E-001	-1.03954E+000	3.57860E+000	10	...........
	66	0.893333	9.60022E-001	5.99512E-003	0.00000E+000	5.75544E-003	3.59960E-001	-1.03091E+000	3.57860E+000	10	...........
	67	0.906667	9.65470E-001	5.99503E-003	0.00000E+000	5.78802E-003	3.59960E-001	-1.03852E+000	3.57860E+000	10	...........
	68	0.92	9.70902E-001	5.98934E-003	0.00000E+000	5.81506E-003	3.59960E-001	-1.03902E+000	3.57860E+000	10	...........
	69	0.933333	9.76369E-001	5.99296E-003	0.00000E+000	5.85134E-003	3.59960E-001	-1.03049E+000	3.57860E+000	10	...........
	70	0.946667	9.81726E-001	5.99225E-003	0.00000E+000	5.88275E-003	3.59960E-001	-1.03847E+000	3.57860E+000	10	...........
	71	0.96	9.87052E-001	5.99529E-003	0.00000E+000	5.91766E-003	3.59960E-001	-1.03894E+000	3.57860E+000	10	...........
	72	0.97333	9.92370E-001	5.99514E-003	0.00000E+000	5.94939E-003	3.59960E-001	-1.03071E+000	3.57860E+000	10	...........
	73	0.98667	9.97632E-001	5.99216E-003	0.00000E+000	5.97797E-003	3.59960E-001	-1.03839E+000	3.57860E+000	10	...........
	74	0.98833	1.00060E+000	5.99696E-003	0.00000E+000	6.00059E-003	3.59960E-001	-1.01645E+000	3.57860E+000	10	...........
STARTTIMEOFFSET	QUANT	92.715	Start Time Offset (s)