Folder: Tesis/Data/CV_CRGO300517_1/PWRCCD_CRGO300517_1/CHARGE_DISCHARGE (part 49)

File: CHARGE_#97.DTA
EXPLAIN
TAG	PWR800_CHARGE
TITLE	LABEL	PWR Cyclic Charge Discharge (Cell) - Charge Step	Test &Identifier
DATE	LABEL	22-6-2017	Date
TIME	LABEL	15:39:22	Time
NOTES	NOTES	3	&Notes...
	supercap test cell
	0.6mg
	6M KOH
PSTAT	PSTAT	IFC5000-01520	Potentiostat
CAPACITY	QUANT	1.00000E-003	Capacity (A-hr)
CELLTYPE	SELECTOR	1	&Cell Type
WORKINGCONNECTION	SELECTOR	0	&Working Lead
MAXCHARGETIME	VARIABLEANDUNITS	1.00000E+002	s	1.00000E+002	second(s)	Max &Charge Time
CHARGECURRENT	QUANT	6.00000E-003	&Charge Current (A)
VOLTAGEFINISH	TWOPARAM	F	1.00000E-003	3.60000E+003	&Voltage Finish	 I (A) < 	Max Time(s)
SAMPLETIME	QUANT	1.00000E-002	Sa&mple Period (s)
CHARGESTOPAT1	MULTIPARAM	4	1.00000E+000	Charge Stop At &1	Voltage > Limit	V
CHARGESTOPAT2	MULTIPARAM	0	0.00000E+000	Charge Stop At &2	None	N/A
AESBHCSELECTOR	TOGGLE	F	Save Both Half Cells
IRCOMP	TOGGLE	F	IR &Measure
EOC	QUANT	0	Open Circuit (V)
SEQUENCER	TOGGLE	TRUE	Run as Sequence
PSTATMODEL	IQUANT	53	Pstat Model
PSTATSECTION	LABEL	IFC5000-01520	Pstat Section
PSTATSERIALNO	LABEL	01520	Pstat Serial Number
CTRLMODE	IQUANT	0	Control Mode
ELECTROMETER	IQUANT	1	RE=0 or CS=1
IESTAB	IQUANT	0	I/E Stability
CASPEED	IQUANT	4	Control Amp Speed
CONVENTION	IQUANT	1	Current Convention
ICHRANGE	IQUANT	2	Ich Range
ICHRANGEMODE	TOGGLE	T	Ich Auto Range
ICHOFFSETENABLE	TOGGLE	F	Ich Offset Enable
ICHOFFSET	QUANT	0	Ich Offset (V)
ICHFILTER	IQUANT	1	Ich Filter
VCHRANGE	IQUANT	2	Vch Range
VCHRANGEMODE	TOGGLE	T	Vch Auto Range
VCHOFFSETENABLE	TOGGLE	F	Vch Offset Enable
VCHOFFSET	QUANT	0	Vch Offset (V)
VCHFILTER	IQUANT	1	Vch Filter
IERANGELOWERLIMIT	IQUANT	9	I/E Range Lower Limit
IERANGEMODE	TOGGLE	F	I/E AutoRange
IERANGE	IQUANT	10	I/E Range
ACHSELECT	IQUANT	1	Ach Select
ACHRANGE	IQUANT	2	Ach Range
ACHOFFSETENABLE	TOGGLE	F	Ach Offset Enable
ACHOFFSET	QUANT	0	Ach Offset (V)
ACHFILTER	IQUANT	1	Ach Filter
CABLEID	IQUANT	14	Cable ID
DCCALDATE	LABEL	20-10-2016	DC Calibration Date
ACCALDATE	LABEL	12/3/2015	AC Calibration Date
FRAMEWORKVERSION	QUANT	7.01	Framework Version
INSTRUMENTVERSION	LABEL	4.00	Instrument Version
CURVE	TABLE	70
	Pt	T	Vf	Im	Vu	Pwr	Sig	Ach	Temp	IERange	Over
	#	s	V	A	V	W	V	V	deg C	#	bits
	0	0.013333	5.87516E-001	5.99439E-003	0.00000E+000	3.52180E-003	3.59960E-001	-1.06338E+000	3.57840E+000	10	...........
	1	0.026667	5.95798E-001	5.99516E-003	0.00000E+000	3.57190E-003	3.59960E-001	-1.05802E+000	3.57840E+000	10	...........
	2	0.04	6.03305E-001	5.99807E-003	0.00000E+000	3.61866E-003	3.59960E-001	-1.06646E+000	3.57840E+000	10	...........
	3	0.053333	6.10421E-001	5.99382E-003	0.00000E+000	3.65876E-003	3.59960E-001	-1.06324E+000	3.57840E+000	10	...........
	4	0.066667	6.17404E-001	5.99746E-003	0.00000E+000	3.70286E-003	3.59960E-001	-1.05801E+000	3.57840E+000	10	...........
	5	0.08	6.24114E-001	5.99456E-003	0.00000E+000	3.74129E-003	3.59960E-001	-1.06608E+000	3.57840E+000	10	...........
	6	0.093333	6.30672E-001	5.99620E-003	0.00000E+000	3.78164E-003	3.59960E-001	-1.06318E+000	3.57840E+000	10	...........
	7	0.106667	6.37125E-001	5.99147E-003	0.00000E+000	3.81731E-003	3.59960E-001	-1.05819E+000	3.57840E+000	10	...........
	8	0.12	6.43530E-001	5.99296E-003	0.00000E+000	3.85665E-003	3.59960E-001	-1.06613E+000	3.57840E+000	10	...........
	9	0.133333	6.49863E-001	5.99663E-003	0.00000E+000	3.89699E-003	3.59960E-001	-1.06308E+000	3.57840E+000	10	...........
	10	0.146667	6.56094E-001	5.99059E-003	0.00000E+000	3.93039E-003	3.59960E-001	-1.05772E+000	3.57840E+000	10	...........
	11	0.16	6.62294E-001	5.99452E-003	0.00000E+000	3.97014E-003	3.59960E-001	-1.06579E+000	3.57840E+000	10	...........
	12	0.173333	6.68461E-001	5.99516E-003	0.00000E+000	4.00753E-003	3.59960E-001	-1.06340E+000	3.57840E+000	10	...........
	13	0.186667	6.74534E-001	5.99137E-003	0.00000E+000	4.04138E-003	3.59960E-001	-1.05789E+000	3.57840E+000	10	...........
	14	0.2	6.80597E-001	5.99382E-003	0.00000E+000	4.07938E-003	3.59960E-001	-1.06566E+000	3.57840E+000	10	...........
	15	0.213333	6.86613E-001	5.99272E-003	0.00000E+000	4.11468E-003	3.59960E-001	-1.06315E+000	3.57840E+000	10	...........
	16	0.226667	6.92665E-001	5.99232E-003	0.00000E+000	4.15067E-003	3.59960E-001	-1.05778E+000	3.57840E+000	10	...........
	17	0.24	6.98641E-001	5.99588E-003	0.00000E+000	4.18897E-003	3.59960E-001	-1.06587E+000	3.57840E+000	10	...........
	18	0.253333	7.04641E-001	5.99175E-003	0.00000E+000	4.22203E-003	3.59960E-001	-1.06345E+000	3.57840E+000	10	...........
	19	0.266667	7.10613E-001	5.99383E-003	0.00000E+000	4.25930E-003	3.59960E-001	-1.05776E+000	3.57840E+000	10	...........
	20	0.28	7.16613E-001	5.99255E-003	0.00000E+000	4.29434E-003	3.59960E-001	-1.06549E+000	3.57840E+000	10	...........
	21	0.293333	7.22570E-001	5.99019E-003	0.00000E+000	4.32833E-003	3.59960E-001	-1.06341E+000	3.57840E+000	10	...........
	22	0.306667	7.28482E-001	5.99337E-003	0.00000E+000	4.36607E-003	3.59960E-001	-1.05799E+000	3.57840E+000	10	...........
	23	0.32	7.34387E-001	5.99656E-003	0.00000E+000	4.40379E-003	3.59960E-001	-1.06567E+000	3.57840E+000	10	...........
	24	0.333333	7.40323E-001	5.99161E-003	0.00000E+000	4.43573E-003	3.59960E-001	-1.06350E+000	3.57840E+000	10	...........
	25	0.346667	7.46274E-001	5.99476E-003	0.00000E+000	4.47373E-003	3.59960E-001	-1.05759E+000	3.57840E+000	10	...........
	26	0.36	7.52177E-001	5.99163E-003	0.00000E+000	4.50677E-003	3.59960E-001	-1.06517E+000	3.57840E+000	10	...........
	27	0.373333	7.58093E-001	5.99805E-003	0.00000E+000	4.54708E-003	3.59960E-001	-1.06350E+000	3.57840E+000	10	...........
	28	0.386667	7.64028E-001	5.99394E-003	0.00000E+000	4.57954E-003	3.59960E-001	-1.05759E+000	3.57840E+000	10	...........
	29	0.4	7.69936E-001	5.99370E-003	0.00000E+000	4.61477E-003	3.59960E-001	-1.06497E+000	3.57840E+000	10	...........
	30	0.413333	7.75849E-001	5.99415E-003	0.00000E+000	4.65055E-003	3.59960E-001	-1.06324E+000	3.57840E+000	10	...........
	31	0.426667	7.81752E-001	5.99494E-003	0.00000E+000	4.68656E-003	3.59960E-001	-1.05745E+000	3.57840E+000	10	...........
	32	0.44	7.87623E-001	5.99091E-003	0.00000E+000	4.71858E-003	3.59960E-001	-1.06505E+000	3.57840E+000	10	...........
	33	0.453333	7.93545E-001	5.99330E-003	0.00000E+000	4.75595E-003	3.59960E-001	-1.06349E+000	3.57840E+000	10	...........
	34	0.466667	7.99430E-001	5.99301E-003	0.00000E+000	4.79099E-003	3.59960E-001	-1.05729E+000	3.57840E+000	10	...........
	35	0.48	8.05307E-001	5.99462E-003	0.00000E+000	4.82751E-003	3.59960E-001	-1.06468E+000	3.57840E+000	10	...........
	36	0.493333	8.11132E-001	5.99123E-003	0.00000E+000	4.85967E-003	3.59960E-001	-1.06340E+000	3.57840E+000	10	...........
	37	0.506667	8.17061E-001	5.99104E-003	0.00000E+000	4.89505E-003	3.59960E-001	-1.05734E+000	3.57840E+000	10	...........
	38	0.52	8.22921E-001	5.98961E-003	0.00000E+000	4.92897E-003	3.59960E-001	-1.06477E+000	3.57840E+000	10	...........
	39	0.533333	8.28762E-001	5.99556E-003	0.00000E+000	4.96890E-003	3.59960E-001	-1.06334E+000	3.57840E+000	10	...........
	40	0.546667	8.34624E-001	5.99344E-003	0.00000E+000	5.00227E-003	3.59960E-001	-1.05707E+000	3.57840E+000	10	...........
	41	0.56	8.40508E-001	5.99751E-003	0.00000E+000	5.04095E-003	3.59960E-001	-1.06477E+000	3.57826E+000	10	...........
	42	0.573333	8.46376E-001	5.99077E-003	0.00000E+000	5.07044E-003	3.59960E-001	-1.06373E+000	3.57730E+000	10	...........
	43	0.586667	8.52228E-001	5.99664E-003	0.00000E+000	5.11050E-003	3.59960E-001	-1.05733E+000	3.57730E+000	10	...........
	44	0.6	8.58027E-001	5.99505E-003	0.00000E+000	5.14391E-003	3.59960E-001	-1.06468E+000	3.57730E+000	10	...........
	45	0.613333	8.63851E-001	5.99293E-003	0.00000E+000	5.17700E-003	3.59960E-001	-1.06351E+000	3.57730E+000	10	...........
	46	0.626667	8.69722E-001	5.99618E-003	0.00000E+000	5.21501E-003	3.59960E-001	-1.05718E+000	3.57730E+000	10	...........
	47	0.64	8.75528E-001	5.99326E-003	0.00000E+000	5.24727E-003	3.59960E-001	-1.06455E+000	3.57730E+000	10	...........
	48	0.653333	8.81276E-001	5.99297E-003	0.00000E+000	5.28146E-003	3.59960E-001	-1.06376E+000	3.57730E+000	10	...........
	49	0.666667	8.87107E-001	5.99346E-003	0.00000E+000	5.31684E-003	3.59960E-001	-1.05695E+000	3.57730E+000	10	...........
	50	0.68	8.92867E-001	5.99273E-003	0.00000E+000	5.35071E-003	3.59960E-001	-1.06377E+000	3.57730E+000	10	...........
	51	0.693333	8.98611E-001	5.99551E-003	0.00000E+000	5.38764E-003	3.59960E-001	-1.06331E+000	3.57730E+000	10	...........
	52	0.706667	9.04349E-001	5.99567E-003	0.00000E+000	5.42217E-003	3.59960E-001	-1.05701E+000	3.57730E+000	10	...........
	53	0.72	9.10119E-001	5.99530E-003	0.00000E+000	5.45644E-003	3.59960E-001	-1.06409E+000	3.57730E+000	10	...........
	54	0.733333	9.15833E-001	5.99636E-003	0.00000E+000	5.49166E-003	3.59960E-001	-1.06340E+000	3.57730E+000	10	...........
	55	0.746667	9.21595E-001	5.99362E-003	0.00000E+000	5.52369E-003	3.59960E-001	-1.05665E+000	3.57730E+000	10	...........
	56	0.76	9.27301E-001	5.99422E-003	0.00000E+000	5.55844E-003	3.59960E-001	-1.06375E+000	3.57730E+000	10	...........
	57	0.773333	9.32932E-001	5.99669E-003	0.00000E+000	5.59450E-003	3.59960E-001	-1.06347E+000	3.57730E+000	10	...........
	58	0.786667	9.38524E-001	5.99240E-003	0.00000E+000	5.62401E-003	3.59960E-001	-1.05671E+000	3.57730E+000	10	...........
	59	0.8	9.44126E-001	5.99270E-003	0.00000E+000	5.65786E-003	3.59960E-001	-1.06360E+000	3.57730E+000	10	...........
	60	0.813333	9.49732E-001	5.99239E-003	0.00000E+000	5.69117E-003	3.59960E-001	-1.06334E+000	3.57730E+000	10	...........
	61	0.826667	9.55311E-001	5.99573E-003	0.00000E+000	5.72779E-003	3.59960E-001	-1.05661E+000	3.57730E+000	10	...........
	62	0.84	9.60819E-001	5.99313E-003	0.00000E+000	5.75832E-003	3.59960E-001	-1.06367E+000	3.57730E+000	10	...........
	63	0.853333	9.66310E-001	5.99284E-003	0.00000E+000	5.79095E-003	3.59960E-001	-1.06347E+000	3.57730E+000	10	...........
	64	0.866667	9.71824E-001	5.99344E-003	0.00000E+000	5.82456E-003	3.59960E-001	-1.05644E+000	3.57730E+000	10	...........
	65	0.88	9.77327E-001	5.99179E-003	0.00000E+000	5.85594E-003	3.59960E-001	-1.06323E+000	3.57730E+000	10	...........
	66	0.893333	9.82723E-001	5.99182E-003	0.00000E+000	5.88830E-003	3.59960E-001	-1.06320E+000	3.57730E+000	10	...........
	67	0.906667	9.88102E-001	5.99220E-003	0.00000E+000	5.92090E-003	3.59960E-001	-1.05647E+000	3.57730E+000	10	...........
	68	0.92	9.93413E-001	5.99067E-003	0.00000E+000	5.95121E-003	3.59960E-001	-1.06328E+000	3.57730E+000	10	...........
	69	0.931667	9.98433E-001	5.99377E-003	0.00000E+000	5.98438E-003	3.59960E-001	-1.06266E+000	3.57730E+000	10	...........
STARTTIMEOFFSET	QUANT	189.67	Start Time Offset (s)

File: CHARGE_#98.DTA
EXPLAIN
TAG	PWR800_CHARGE
TITLE	LABEL	PWR Cyclic Charge Discharge (Cell) - Charge Step	Test &Identifier
DATE	LABEL	22-6-2017	Date
TIME	LABEL	15:39:25	Time
NOTES	NOTES	3	&Notes...
	supercap test cell
	0.6mg
	6M KOH
PSTAT	PSTAT	IFC5000-01520	Potentiostat
CAPACITY	QUANT	1.00000E-003	Capacity (A-hr)
CELLTYPE	SELECTOR	1	&Cell Type
WORKINGCONNECTION	SELECTOR	0	&Working Lead
MAXCHARGETIME	VARIABLEANDUNITS	1.00000E+002	s	1.00000E+002	second(s)	Max &Charge Time
CHARGECURRENT	QUANT	6.00000E-003	&Charge Current (A)
VOLTAGEFINISH	TWOPARAM	F	1.00000E-003	3.60000E+003	&Voltage Finish	 I (A) < 	Max Time(s)
SAMPLETIME	QUANT	1.00000E-002	Sa&mple Period (s)
CHARGESTOPAT1	MULTIPARAM	4	1.00000E+000	Charge Stop At &1	Voltage > Limit	V
CHARGESTOPAT2	MULTIPARAM	0	0.00000E+000	Charge Stop At &2	None	N/A
AESBHCSELECTOR	TOGGLE	F	Save Both Half Cells
IRCOMP	TOGGLE	F	IR &Measure
EOC	QUANT	0	Open Circuit (V)
SEQUENCER	TOGGLE	TRUE	Run as Sequence
PSTATMODEL	IQUANT	53	Pstat Model
PSTATSECTION	LABEL	IFC5000-01520	Pstat Section
PSTATSERIALNO	LABEL	01520	Pstat Serial Number
CTRLMODE	IQUANT	0	Control Mode
ELECTROMETER	IQUANT	1	RE=0 or CS=1
IESTAB	IQUANT	0	I/E Stability
CASPEED	IQUANT	4	Control Amp Speed
CONVENTION	IQUANT	1	Current Convention
ICHRANGE	IQUANT	2	Ich Range
ICHRANGEMODE	TOGGLE	T	Ich Auto Range
ICHOFFSETENABLE	TOGGLE	F	Ich Offset Enable
ICHOFFSET	QUANT	0	Ich Offset (V)
ICHFILTER	IQUANT	1	Ich Filter
VCHRANGE	IQUANT	2	Vch Range
VCHRANGEMODE	TOGGLE	T	Vch Auto Range
VCHOFFSETENABLE	TOGGLE	F	Vch Offset Enable
VCHOFFSET	QUANT	0	Vch Offset (V)
VCHFILTER	IQUANT	1	Vch Filter
IERANGELOWERLIMIT	IQUANT	9	I/E Range Lower Limit
IERANGEMODE	TOGGLE	F	I/E AutoRange
IERANGE	IQUANT	10	I/E Range
ACHSELECT	IQUANT	1	Ach Select
ACHRANGE	IQUANT	2	Ach Range
ACHOFFSETENABLE	TOGGLE	F	Ach Offset Enable
ACHOFFSET	QUANT	0	Ach Offset (V)
ACHFILTER	IQUANT	1	Ach Filter
CABLEID	IQUANT	14	Cable ID
DCCALDATE	LABEL	20-10-2016	DC Calibration Date
ACCALDATE	LABEL	12/3/2015	AC Calibration Date
FRAMEWORKVERSION	QUANT	7.01	Framework Version
INSTRUMENTVERSION	LABEL	4.00	Instrument Version
CURVE	TABLE	70
	Pt	T	Vf	Im	Vu	Pwr	Sig	Ach	Temp	IERange	Over
	#	s	V	A	V	W	V	V	deg C	#	bits
	0	0.013333	5.88332E-001	5.99250E-003	0.00000E+000	3.52558E-003	3.59960E-001	-1.06044E+000	3.57720E+000	10	...........
	1	0.026667	5.96560E-001	5.99729E-003	0.00000E+000	3.57774E-003	3.59960E-001	-1.07044E+000	3.57720E+000	10	...........
	2	0.04	6.04056E-001	5.99424E-003	0.00000E+000	3.62086E-003	3.59960E-001	-1.06123E+000	3.57720E+000	10	...........
	3	0.053333	6.11193E-001	5.99236E-003	0.00000E+000	3.66249E-003	3.59960E-001	-1.06040E+000	3.57720E+000	10	...........
	4	0.066667	6.18167E-001	5.99203E-003	0.00000E+000	3.70407E-003	3.59960E-001	-1.07060E+000	3.57720E+000	10	...........
	5	0.08	6.24893E-001	5.99101E-003	0.00000E+000	3.74374E-003	3.59960E-001	-1.06122E+000	3.57720E+000	10	...........
	6	0.093333	6.31448E-001	5.99281E-003	0.00000E+000	3.78415E-003	3.59960E-001	-1.06039E+000	3.57720E+000	10	...........
	7	0.106667	6.37886E-001	5.99171E-003	0.00000E+000	3.82203E-003	3.59960E-001	-1.07057E+000	3.57720E+000	10	...........
	8	0.12	6.44270E-001	5.99176E-003	0.00000E+000	3.86031E-003	3.59960E-001	-1.06142E+000	3.57720E+000	10	...........
	9	0.133333	6.50556E-001	5.99191E-003	0.00000E+000	3.89808E-003	3.59960E-001	-1.06056E+000	3.57720E+000	10	...........
	10	0.146667	6.56811E-001	5.99430E-003	0.00000E+000	3.93712E-003	3.59960E-001	-1.07076E+000	3.57720E+000	10	...........
	11	0.16	6.62983E-001	5.99542E-003	0.00000E+000	3.97486E-003	3.59960E-001	-1.06155E+000	3.57720E+000	10	...........
	12	0.173333	6.69198E-001	5.99179E-003	0.00000E+000	4.00969E-003	3.59960E-001	-1.06075E+000	3.57720E+000	10	...........
	13	0.186667	6.75309E-001	5.99173E-003	0.00000E+000	4.04627E-003	3.59960E-001	-1.07120E+000	3.57720E+000	10	...........
	14	0.2	6.81347E-001	5.99356E-003	0.00000E+000	4.08370E-003	3.59960E-001	-1.06224E+000	3.57720E+000	10	...........
	15	0.213333	6.87370E-001	5.99366E-003	0.00000E+000	4.11986E-003	3.59960E-001	-1.06099E+000	3.57720E+000	10	...........
	16	0.226667	6.93419E-001	5.99251E-003	0.00000E+000	4.15532E-003	3.59960E-001	-1.07135E+000	3.57720E+000	10	...........
	17	0.24	6.99419E-001	5.99276E-003	0.00000E+000	4.19145E-003	3.59960E-001	-1.06215E+000	3.57720E+000	10	...........
	18	0.253333	7.05408E-001	5.99136E-003	0.00000E+000	4.22635E-003	3.59960E-001	-1.06109E+000	3.57720E+000	10	...........
	19	0.266667	7.11410E-001	5.99317E-003	0.00000E+000	4.26360E-003	3.59960E-001	-1.07121E+000	3.57720E+000	10	...........
	20	0.28	7.17402E-001	5.99311E-003	0.00000E+000	4.29947E-003	3.59960E-001	-1.06201E+000	3.57720E+000	10	...........
	21	0.293333	7.23374E-001	5.99642E-003	0.00000E+000	4.33766E-003	3.59960E-001	-1.06066E+000	3.57720E+000	10	...........
	22	0.306667	7.29335E-001	5.99377E-003	0.00000E+000	4.37147E-003	3.59960E-001	-1.07132E+000	3.57720E+000	10	...........
	23	0.32	7.35262E-001	5.98948E-003	0.00000E+000	4.40384E-003	3.59960E-001	-1.06223E+000	3.57720E+000	10	...........
	24	0.333333	7.41215E-001	5.99548E-003	0.00000E+000	4.44394E-003	3.59960E-001	-1.06072E+000	3.57720E+000	10	...........
	25	0.346667	7.47144E-001	5.99522E-003	0.00000E+000	4.47929E-003	3.59960E-001	-1.07122E+000	3.57720E+000	10	...........
	26	0.36	7.53044E-001	5.99616E-003	0.00000E+000	4.51537E-003	3.59960E-001	-1.06222E+000	3.57720E+000	10	...........
	27	0.373333	7.58972E-001	5.99342E-003	0.00000E+000	4.54884E-003	3.59960E-001	-1.06078E+000	3.57720E+000	10	...........
	28	0.386667	7.64880E-001	5.99360E-003	0.00000E+000	4.58439E-003	3.59960E-001	-1.07155E+000	3.57720E+000	10	...........
	29	0.4	7.70773E-001	5.99752E-003	0.00000E+000	4.62272E-003	3.59960E-001	-1.06231E+000	3.57720E+000	10	...........
	30	0.413333	7.76661E-001	5.99506E-003	0.00000E+000	4.65613E-003	3.59960E-001	-1.06067E+000	3.57720E+000	10	...........
	31	0.426667	7.82582E-001	5.99311E-003	0.00000E+000	4.69010E-003	3.59960E-001	-1.07125E+000	3.57720E+000	10	...........
	32	0.44	7.88450E-001	5.99340E-003	0.00000E+000	4.72549E-003	3.59960E-001	-1.06203E+000	3.57720E+000	10	...........
	33	0.453333	7.94402E-001	5.99191E-003	0.00000E+000	4.75999E-003	3.59960E-001	-1.06070E+000	3.57720E+000	10	...........
	34	0.466667	8.00264E-001	5.99913E-003	0.00000E+000	4.80089E-003	3.59960E-001	-1.07145E+000	3.57720E+000	10	...........
	35	0.48	8.06180E-001	5.99943E-003	0.00000E+000	4.83662E-003	3.59960E-001	-1.06261E+000	3.57720E+000	10	...........
	36	0.493333	8.12082E-001	5.99454E-003	0.00000E+000	4.86806E-003	3.59960E-001	-1.06101E+000	3.57720E+000	10	...........
	37	0.506667	8.17919E-001	5.99409E-003	0.00000E+000	4.90268E-003	3.59960E-001	-1.07172E+000	3.57720E+000	10	...........
	38	0.52	8.23796E-001	5.99519E-003	0.00000E+000	4.93881E-003	3.59960E-001	-1.06307E+000	3.57720E+000	10	...........
	39	0.533333	8.29692E-001	5.99107E-003	0.00000E+000	4.97074E-003	3.59960E-001	-1.06134E+000	3.57720E+000	10	...........
	40	0.546667	8.35541E-001	5.99397E-003	0.00000E+000	5.00820E-003	3.59960E-001	-1.07205E+000	3.57720E+000	10	...........
	41	0.56	8.41405E-001	5.99254E-003	0.00000E+000	5.04215E-003	3.59960E-001	-1.06293E+000	3.57720E+000	10	...........
	42	0.573333	8.47270E-001	5.99385E-003	0.00000E+000	5.07841E-003	3.59960E-001	-1.06115E+000	3.57720E+000	10	...........
	43	0.586667	8.53105E-001	5.99618E-003	0.00000E+000	5.11537E-003	3.59960E-001	-1.07181E+000	3.57720E+000	10	...........
	44	0.6	8.58981E-001	5.99408E-003	0.00000E+000	5.14880E-003	3.59960E-001	-1.06282E+000	3.57720E+000	10	...........
	45	0.613333	8.64769E-001	5.99195E-003	0.00000E+000	5.18165E-003	3.59960E-001	-1.06100E+000	3.57720E+000	10	...........
	46	0.626667	8.70599E-001	5.99423E-003	0.00000E+000	5.21857E-003	3.59960E-001	-1.07171E+000	3.57720E+000	10	...........
	47	0.64	8.76388E-001	5.99141E-003	0.00000E+000	5.25080E-003	3.59960E-001	-1.06330E+000	3.57720E+000	10	...........
	48	0.653333	8.82239E-001	5.99384E-003	0.00000E+000	5.28800E-003	3.59960E-001	-1.06123E+000	3.57720E+000	10	...........
	49	0.666667	8.88054E-001	5.99492E-003	0.00000E+000	5.32381E-003	3.59960E-001	-1.07217E+000	3.57720E+000	10	...........
	50	0.68	8.93817E-001	5.99297E-003	0.00000E+000	5.35662E-003	3.59960E-001	-1.06329E+000	3.57720E+000	10	...........
	51	0.693333	8.99598E-001	5.99486E-003	0.00000E+000	5.39296E-003	3.59960E-001	-1.06116E+000	3.57720E+000	10	...........
	52	0.706667	9.05320E-001	5.99281E-003	0.00000E+000	5.42541E-003	3.59960E-001	-1.07240E+000	3.57720E+000	10	...........
	53	0.72	9.11084E-001	5.98845E-003	0.00000E+000	5.45598E-003	3.59960E-001	-1.06400E+000	3.57720E+000	10	...........
	54	0.733333	9.16761E-001	5.99617E-003	0.00000E+000	5.49705E-003	3.59960E-001	-1.06181E+000	3.57720E+000	10	...........
	55	0.746667	9.22520E-001	5.99494E-003	0.00000E+000	5.53045E-003	3.59960E-001	-1.07259E+000	3.57720E+000	10	...........
	56	0.76	9.28184E-001	5.99358E-003	0.00000E+000	5.56315E-003	3.59960E-001	-1.06388E+000	3.57720E+000	10	...........
	57	0.773333	9.33868E-001	5.99466E-003	0.00000E+000	5.59822E-003	3.59960E-001	-1.06164E+000	3.57720E+000	10	...........
	58	0.786667	9.39475E-001	5.99542E-003	0.00000E+000	5.63255E-003	3.59960E-001	-1.07294E+000	3.57720E+000	10	...........
	59	0.8	9.45057E-001	5.99100E-003	0.00000E+000	5.66183E-003	3.59960E-001	-1.06431E+000	3.57720E+000	10	...........
	60	0.813333	9.50693E-001	5.99479E-003	0.00000E+000	5.69921E-003	3.59960E-001	-1.06203E+000	3.57720E+000	10	...........
	61	0.826667	9.56264E-001	5.99572E-003	0.00000E+000	5.73349E-003	3.59960E-001	-1.07278E+000	3.57720E+000	10	...........
	62	0.84	9.61770E-001	5.99232E-003	0.00000E+000	5.76323E-003	3.59960E-001	-1.06410E+000	3.57720E+000	10	...........
	63	0.853333	9.67289E-001	5.99303E-003	0.00000E+000	5.79699E-003	3.59960E-001	-1.06187E+000	3.57720E+000	10	...........
	64	0.866667	9.72799E-001	5.99360E-003	0.00000E+000	5.83057E-003	3.59960E-001	-1.07288E+000	3.57720E+000	10	...........
	65	0.88	9.78248E-001	5.99383E-003	0.00000E+000	5.86346E-003	3.59960E-001	-1.06425E+000	3.57720E+000	10	...........
	66	0.893333	9.83650E-001	5.99407E-003	0.00000E+000	5.89607E-003	3.59960E-001	-1.06174E+000	3.57720E+000	10	...........
	67	0.906667	9.89022E-001	5.99522E-003	0.00000E+000	5.92941E-003	3.59960E-001	-1.07230E+000	3.57720E+000	10	...........
	68	0.92	9.94344E-001	5.99381E-003	0.00000E+000	5.95991E-003	3.59960E-001	-1.06388E+000	3.57818E+000	10	...........
	69	0.93	9.98992E-001	5.99705E-003	0.00000E+000	5.99100E-003	3.59960E-001	-1.06325E+000	3.57850E+000	10	...........
STARTTIMEOFFSET	QUANT	191.52	Start Time Offset (s)