Folder: Tesis/Data/CV_CRGO300517_1/PWRCCD_CRGO300517_1/CHARGE_DISCHARGE (part 88)

File: CHARGE_#175.DTA
EXPLAIN
TAG	PWR800_CHARGE
TITLE	LABEL	PWR Cyclic Charge Discharge (Cell) - Charge Step	Test &Identifier
DATE	LABEL	22-6-2017	Date
TIME	LABEL	15:42:45	Time
NOTES	NOTES	3	&Notes...
	supercap test cell
	0.6mg
	6M KOH
PSTAT	PSTAT	IFC5000-01520	Potentiostat
CAPACITY	QUANT	1.00000E-003	Capacity (A-hr)
CELLTYPE	SELECTOR	1	&Cell Type
WORKINGCONNECTION	SELECTOR	0	&Working Lead
MAXCHARGETIME	VARIABLEANDUNITS	1.00000E+002	s	1.00000E+002	second(s)	Max &Charge Time
CHARGECURRENT	QUANT	6.00000E-003	&Charge Current (A)
VOLTAGEFINISH	TWOPARAM	F	1.00000E-003	3.60000E+003	&Voltage Finish	 I (A) < 	Max Time(s)
SAMPLETIME	QUANT	1.00000E-002	Sa&mple Period (s)
CHARGESTOPAT1	MULTIPARAM	4	1.00000E+000	Charge Stop At &1	Voltage > Limit	V
CHARGESTOPAT2	MULTIPARAM	0	0.00000E+000	Charge Stop At &2	None	N/A
AESBHCSELECTOR	TOGGLE	F	Save Both Half Cells
IRCOMP	TOGGLE	F	IR &Measure
EOC	QUANT	0	Open Circuit (V)
SEQUENCER	TOGGLE	TRUE	Run as Sequence
PSTATMODEL	IQUANT	53	Pstat Model
PSTATSECTION	LABEL	IFC5000-01520	Pstat Section
PSTATSERIALNO	LABEL	01520	Pstat Serial Number
CTRLMODE	IQUANT	0	Control Mode
ELECTROMETER	IQUANT	1	RE=0 or CS=1
IESTAB	IQUANT	0	I/E Stability
CASPEED	IQUANT	4	Control Amp Speed
CONVENTION	IQUANT	1	Current Convention
ICHRANGE	IQUANT	2	Ich Range
ICHRANGEMODE	TOGGLE	T	Ich Auto Range
ICHOFFSETENABLE	TOGGLE	F	Ich Offset Enable
ICHOFFSET	QUANT	0	Ich Offset (V)
ICHFILTER	IQUANT	1	Ich Filter
VCHRANGE	IQUANT	2	Vch Range
VCHRANGEMODE	TOGGLE	T	Vch Auto Range
VCHOFFSETENABLE	TOGGLE	F	Vch Offset Enable
VCHOFFSET	QUANT	0	Vch Offset (V)
VCHFILTER	IQUANT	1	Vch Filter
IERANGELOWERLIMIT	IQUANT	9	I/E Range Lower Limit
IERANGEMODE	TOGGLE	F	I/E AutoRange
IERANGE	IQUANT	10	I/E Range
ACHSELECT	IQUANT	1	Ach Select
ACHRANGE	IQUANT	2	Ach Range
ACHOFFSETENABLE	TOGGLE	F	Ach Offset Enable
ACHOFFSET	QUANT	0	Ach Offset (V)
ACHFILTER	IQUANT	1	Ach Filter
CABLEID	IQUANT	14	Cable ID
DCCALDATE	LABEL	20-10-2016	DC Calibration Date
ACCALDATE	LABEL	12/3/2015	AC Calibration Date
FRAMEWORKVERSION	QUANT	7.01	Framework Version
INSTRUMENTVERSION	LABEL	4.00	Instrument Version
CURVE	TABLE	66
	Pt	T	Vf	Im	Vu	Pwr	Sig	Ach	Temp	IERange	Over
	#	s	V	A	V	W	V	V	deg C	#	bits
	0	0.013333	6.02783E-001	5.99512E-003	0.00000E+000	3.61376E-003	3.59960E-001	-1.08888E+000	3.57720E+000	10	...........
	1	0.026667	6.11195E-001	5.99345E-003	0.00000E+000	3.66317E-003	3.59960E-001	-1.08341E+000	3.57720E+000	10	...........
	2	0.04	6.18936E-001	5.99432E-003	0.00000E+000	3.71010E-003	3.59960E-001	-1.09222E+000	3.57720E+000	10	...........
	3	0.053333	6.26267E-001	5.99417E-003	0.00000E+000	3.75395E-003	3.59960E-001	-1.08896E+000	3.57720E+000	10	...........
	4	0.066667	6.33302E-001	5.99686E-003	0.00000E+000	3.79782E-003	3.59960E-001	-1.08358E+000	3.57720E+000	10	...........
	5	0.08	6.40158E-001	5.99374E-003	0.00000E+000	3.83694E-003	3.59960E-001	-1.09212E+000	3.57720E+000	10	...........
	6	0.093333	6.46891E-001	5.98940E-003	0.00000E+000	3.87449E-003	3.59960E-001	-1.08888E+000	3.57720E+000	10	...........
	7	0.106667	6.53476E-001	5.99367E-003	0.00000E+000	3.91672E-003	3.59960E-001	-1.08361E+000	3.57720E+000	10	...........
	8	0.12	6.59975E-001	5.99639E-003	0.00000E+000	3.95746E-003	3.59960E-001	-1.09203E+000	3.57720E+000	10	...........
	9	0.133333	6.66504E-001	5.99752E-003	0.00000E+000	3.99737E-003	3.59960E-001	-1.08863E+000	3.57720E+000	10	...........
	10	0.146667	6.72912E-001	5.99005E-003	0.00000E+000	4.03077E-003	3.59960E-001	-1.08340E+000	3.57720E+000	10	...........
	11	0.16	6.79259E-001	5.99186E-003	0.00000E+000	4.07003E-003	3.59960E-001	-1.09196E+000	3.57720E+000	10	...........
	12	0.173333	6.85549E-001	5.99306E-003	0.00000E+000	4.10854E-003	3.59960E-001	-1.08905E+000	3.57720E+000	10	...........
	13	0.186667	6.91795E-001	5.99015E-003	0.00000E+000	4.14396E-003	3.59960E-001	-1.08358E+000	3.57720E+000	10	...........
	14	0.2	6.98084E-001	5.99449E-003	0.00000E+000	4.18466E-003	3.59960E-001	-1.09216E+000	3.57720E+000	10	...........
	15	0.213333	7.04271E-001	5.99308E-003	0.00000E+000	4.22075E-003	3.59960E-001	-1.08877E+000	3.57720E+000	10	...........
	16	0.226667	7.10466E-001	5.99186E-003	0.00000E+000	4.25701E-003	3.59960E-001	-1.08340E+000	3.57720E+000	10	...........
	17	0.24	7.16627E-001	5.99560E-003	0.00000E+000	4.29660E-003	3.59960E-001	-1.09182E+000	3.57720E+000	10	...........
	18	0.253333	7.22785E-001	5.99110E-003	0.00000E+000	4.33028E-003	3.59960E-001	-1.08873E+000	3.57720E+000	10	...........
	19	0.266667	7.28924E-001	5.99369E-003	0.00000E+000	4.36894E-003	3.59960E-001	-1.08300E+000	3.57720E+000	10	...........
	20	0.28	7.35031E-001	5.98967E-003	0.00000E+000	4.40259E-003	3.59960E-001	-1.09135E+000	3.57720E+000	10	...........
	21	0.293333	7.41106E-001	5.99545E-003	0.00000E+000	4.44326E-003	3.59960E-001	-1.08838E+000	3.57720E+000	10	...........
	22	0.306667	7.47271E-001	5.99438E-003	0.00000E+000	4.47942E-003	3.59960E-001	-1.08303E+000	3.57720E+000	10	...........
	23	0.32	7.53378E-001	5.99718E-003	0.00000E+000	4.51814E-003	3.59960E-001	-1.09162E+000	3.57720E+000	10	...........
	24	0.333333	7.59474E-001	5.99733E-003	0.00000E+000	4.55481E-003	3.59960E-001	-1.08848E+000	3.57720E+000	10	...........
	25	0.346667	7.65570E-001	5.99585E-003	0.00000E+000	4.59024E-003	3.59960E-001	-1.08290E+000	3.57720E+000	10	...........
	26	0.36	7.71677E-001	5.99550E-003	0.00000E+000	4.62659E-003	3.59960E-001	-1.09140E+000	3.57720E+000	10	...........
	27	0.373333	7.77722E-001	5.99383E-003	0.00000E+000	4.66153E-003	3.59960E-001	-1.08858E+000	3.57720E+000	10	...........
	28	0.386667	7.83780E-001	5.99520E-003	0.00000E+000	4.69892E-003	3.59960E-001	-1.08325E+000	3.57720E+000	10	...........
	29	0.4	7.89824E-001	5.99477E-003	0.00000E+000	4.73481E-003	3.59960E-001	-1.09154E+000	3.57720E+000	10	...........
	30	0.413333	7.95936E-001	5.99825E-003	0.00000E+000	4.77422E-003	3.59960E-001	-1.08842E+000	3.57720E+000	10	...........
	31	0.426667	8.01975E-001	5.99255E-003	0.00000E+000	4.80587E-003	3.59960E-001	-1.08287E+000	3.57720E+000	10	...........
	32	0.44	8.07998E-001	5.99829E-003	0.00000E+000	4.84660E-003	3.59960E-001	-1.09124E+000	3.57720E+000	10	...........
	33	0.453333	8.13986E-001	5.99486E-003	0.00000E+000	4.87973E-003	3.59960E-001	-1.08844E+000	3.57720E+000	10	...........
	34	0.466667	8.20055E-001	5.99337E-003	0.00000E+000	4.91490E-003	3.59960E-001	-1.08286E+000	3.57720E+000	10	...........
	35	0.48	8.26073E-001	5.99264E-003	0.00000E+000	4.95036E-003	3.59960E-001	-1.09125E+000	3.57720E+000	10	...........
	36	0.493333	8.32069E-001	5.99395E-003	0.00000E+000	4.98738E-003	3.59960E-001	-1.08834E+000	3.57720E+000	10	...........
	37	0.506667	8.38034E-001	5.99217E-003	0.00000E+000	5.02165E-003	3.59960E-001	-1.08305E+000	3.57720E+000	10	...........
	38	0.52	8.44075E-001	5.99283E-003	0.00000E+000	5.05840E-003	3.59960E-001	-1.09127E+000	3.57720E+000	10	...........
	39	0.533333	8.50069E-001	5.99527E-003	0.00000E+000	5.09639E-003	3.59960E-001	-1.08863E+000	3.57720E+000	10	...........
	40	0.546667	8.56038E-001	5.99271E-003	0.00000E+000	5.12999E-003	3.59960E-001	-1.08279E+000	3.57720E+000	10	...........
	41	0.56	8.62005E-001	5.99046E-003	0.00000E+000	5.16381E-003	3.59960E-001	-1.09125E+000	3.57720E+000	10	...........
	42	0.573333	8.67980E-001	5.99786E-003	0.00000E+000	5.20602E-003	3.59960E-001	-1.08841E+000	3.57720E+000	10	...........
	43	0.586667	8.73899E-001	5.99070E-003	0.00000E+000	5.23527E-003	3.59960E-001	-1.08269E+000	3.57720E+000	10	...........
	44	0.6	8.79830E-001	5.99229E-003	0.00000E+000	5.27219E-003	3.59960E-001	-1.09084E+000	3.57720E+000	10	...........
	45	0.613333	8.85770E-001	5.98990E-003	0.00000E+000	5.30568E-003	3.59960E-001	-1.08789E+000	3.57720E+000	10	...........
	46	0.626667	8.91666E-001	5.99468E-003	0.00000E+000	5.34525E-003	3.59960E-001	-1.08233E+000	3.57720E+000	10	...........
	47	0.64	8.97527E-001	5.99820E-003	0.00000E+000	5.38355E-003	3.59960E-001	-1.09068E+000	3.57720E+000	10	...........
	48	0.653333	9.03409E-001	5.99356E-003	0.00000E+000	5.41464E-003	3.59960E-001	-1.08810E+000	3.57720E+000	10	...........
	49	0.666667	9.09228E-001	5.99585E-003	0.00000E+000	5.45159E-003	3.59960E-001	-1.08263E+000	3.57720E+000	10	...........
	50	0.68	9.15008E-001	5.99601E-003	0.00000E+000	5.48640E-003	3.59960E-001	-1.09094E+000	3.57720E+000	10	...........
	51	0.693333	9.20842E-001	5.99466E-003	0.00000E+000	5.52013E-003	3.59960E-001	-1.08795E+000	3.57720E+000	10	...........
	52	0.706667	9.26654E-001	5.99180E-003	0.00000E+000	5.55233E-003	3.59960E-001	-1.08248E+000	3.57720E+000	10	...........
	53	0.72	9.32426E-001	5.99333E-003	0.00000E+000	5.58834E-003	3.59960E-001	-1.09088E+000	3.57720E+000	10	...........
	54	0.733333	9.38130E-001	5.99289E-003	0.00000E+000	5.62211E-003	3.59960E-001	-1.08804E+000	3.57720E+000	10	...........
	55	0.746667	9.43801E-001	5.99161E-003	0.00000E+000	5.65489E-003	3.59960E-001	-1.08250E+000	3.57720E+000	10	...........
	56	0.76	9.49490E-001	5.99462E-003	0.00000E+000	5.69183E-003	3.59960E-001	-1.09049E+000	3.57720E+000	10	...........
	57	0.773333	9.55085E-001	5.99518E-003	0.00000E+000	5.72590E-003	3.59960E-001	-1.08805E+000	3.57720E+000	10	...........
	58	0.786667	9.60702E-001	5.99273E-003	0.00000E+000	5.75722E-003	3.59960E-001	-1.08253E+000	3.57720E+000	10	...........
	59	0.8	9.66271E-001	5.99312E-003	0.00000E+000	5.79098E-003	3.59960E-001	-1.09073E+000	3.57720E+000	10	...........
	60	0.813333	9.71845E-001	5.99584E-003	0.00000E+000	5.82702E-003	3.59960E-001	-1.08797E+000	3.57720E+000	10	...........
	61	0.826667	9.77401E-001	5.99229E-003	0.00000E+000	5.85687E-003	3.59960E-001	-1.08229E+000	3.57720E+000	10	...........
	62	0.84	9.82831E-001	5.99894E-003	0.00000E+000	5.89595E-003	3.59960E-001	-1.09078E+000	3.57782E+000	10	...........
	63	0.853333	9.88236E-001	5.99365E-003	0.00000E+000	5.92314E-003	3.59960E-001	-1.08822E+000	3.57820E+000	10	...........
	64	0.866667	9.93658E-001	5.99009E-003	0.00000E+000	5.95210E-003	3.59960E-001	-1.08260E+000	3.57820E+000	10	...........
	65	0.878333	9.98705E-001	5.99672E-003	0.00000E+000	5.98896E-003	3.59960E-001	-1.09311E+000	3.57820E+000	10	...........
STARTTIMEOFFSET	QUANT	329.6134	Start Time Offset (s)

File: CHARGE_#176.DTA
EXPLAIN
TAG	PWR800_CHARGE
TITLE	LABEL	PWR Cyclic Charge Discharge (Cell) - Charge Step	Test &Identifier
DATE	LABEL	22-6-2017	Date
TIME	LABEL	15:42:47	Time
NOTES	NOTES	3	&Notes...
	supercap test cell
	0.6mg
	6M KOH
PSTAT	PSTAT	IFC5000-01520	Potentiostat
CAPACITY	QUANT	1.00000E-003	Capacity (A-hr)
CELLTYPE	SELECTOR	1	&Cell Type
WORKINGCONNECTION	SELECTOR	0	&Working Lead
MAXCHARGETIME	VARIABLEANDUNITS	1.00000E+002	s	1.00000E+002	second(s)	Max &Charge Time
CHARGECURRENT	QUANT	6.00000E-003	&Charge Current (A)
VOLTAGEFINISH	TWOPARAM	F	1.00000E-003	3.60000E+003	&Voltage Finish	 I (A) < 	Max Time(s)
SAMPLETIME	QUANT	1.00000E-002	Sa&mple Period (s)
CHARGESTOPAT1	MULTIPARAM	4	1.00000E+000	Charge Stop At &1	Voltage > Limit	V
CHARGESTOPAT2	MULTIPARAM	0	0.00000E+000	Charge Stop At &2	None	N/A
AESBHCSELECTOR	TOGGLE	F	Save Both Half Cells
IRCOMP	TOGGLE	F	IR &Measure
EOC	QUANT	0	Open Circuit (V)
SEQUENCER	TOGGLE	TRUE	Run as Sequence
PSTATMODEL	IQUANT	53	Pstat Model
PSTATSECTION	LABEL	IFC5000-01520	Pstat Section
PSTATSERIALNO	LABEL	01520	Pstat Serial Number
CTRLMODE	IQUANT	0	Control Mode
ELECTROMETER	IQUANT	1	RE=0 or CS=1
IESTAB	IQUANT	0	I/E Stability
CASPEED	IQUANT	4	Control Amp Speed
CONVENTION	IQUANT	1	Current Convention
ICHRANGE	IQUANT	2	Ich Range
ICHRANGEMODE	TOGGLE	T	Ich Auto Range
ICHOFFSETENABLE	TOGGLE	F	Ich Offset Enable
ICHOFFSET	QUANT	0	Ich Offset (V)
ICHFILTER	IQUANT	1	Ich Filter
VCHRANGE	IQUANT	2	Vch Range
VCHRANGEMODE	TOGGLE	T	Vch Auto Range
VCHOFFSETENABLE	TOGGLE	F	Vch Offset Enable
VCHOFFSET	QUANT	0	Vch Offset (V)
VCHFILTER	IQUANT	1	Vch Filter
IERANGELOWERLIMIT	IQUANT	9	I/E Range Lower Limit
IERANGEMODE	TOGGLE	F	I/E AutoRange
IERANGE	IQUANT	10	I/E Range
ACHSELECT	IQUANT	1	Ach Select
ACHRANGE	IQUANT	2	Ach Range
ACHOFFSETENABLE	TOGGLE	F	Ach Offset Enable
ACHOFFSET	QUANT	0	Ach Offset (V)
ACHFILTER	IQUANT	1	Ach Filter
CABLEID	IQUANT	14	Cable ID
DCCALDATE	LABEL	20-10-2016	DC Calibration Date
ACCALDATE	LABEL	12/3/2015	AC Calibration Date
FRAMEWORKVERSION	QUANT	7.01	Framework Version
INSTRUMENTVERSION	LABEL	4.00	Instrument Version
CURVE	TABLE	66
	Pt	T	Vf	Im	Vu	Pwr	Sig	Ach	Temp	IERange	Over
	#	s	V	A	V	W	V	V	deg C	#	bits
	0	0.013333	6.02780E-001	5.99217E-003	0.00000E+000	3.61196E-003	3.59960E-001	-1.09373E+000	3.57770E+000	10	...........
	1	0.026667	6.11205E-001	5.99446E-003	0.00000E+000	3.66385E-003	3.59960E-001	-1.08690E+000	3.57770E+000	10	...........
	2	0.04	6.19012E-001	5.99526E-003	0.00000E+000	3.71114E-003	3.59960E-001	-1.08356E+000	3.57770E+000	10	...........
	3	0.053333	6.26305E-001	5.99426E-003	0.00000E+000	3.75423E-003	3.59960E-001	-1.09372E+000	3.57770E+000	10	...........
	4	0.066667	6.33322E-001	5.99563E-003	0.00000E+000	3.79716E-003	3.59960E-001	-1.08684E+000	3.57770E+000	10	...........
	5	0.08	6.40178E-001	5.99708E-003	0.00000E+000	3.83920E-003	3.59960E-001	-1.08324E+000	3.57770E+000	10	...........
	6	0.093333	6.46952E-001	5.99636E-003	0.00000E+000	3.87936E-003	3.59960E-001	-1.09347E+000	3.57770E+000	10	...........
	7	0.106667	6.53516E-001	5.99092E-003	0.00000E+000	3.91516E-003	3.59960E-001	-1.08681E+000	3.57770E+000	10	...........
	8	0.12	6.60031E-001	5.99382E-003	0.00000E+000	3.95611E-003	3.59960E-001	-1.08315E+000	3.57770E+000	10	...........
	9	0.133333	6.66523E-001	5.99508E-003	0.00000E+000	3.99586E-003	3.59960E-001	-1.09348E+000	3.57770E+000	10	...........
	10	0.146667	6.72934E-001	5.99512E-003	0.00000E+000	4.03432E-003	3.59960E-001	-1.08647E+000	3.57770E+000	10	...........
	11	0.16	6.79242E-001	5.99539E-003	0.00000E+000	4.07232E-003	3.59960E-001	-1.08307E+000	3.57770E+000	10	...........
	12	0.173333	6.85564E-001	5.99618E-003	0.00000E+000	4.11077E-003	3.59960E-001	-1.09356E+000	3.57770E+000	10	...........
	13	0.186667	6.91861E-001	5.99449E-003	0.00000E+000	4.14736E-003	3.59960E-001	-1.08675E+000	3.57770E+000	10	...........
	14	0.2	6.98075E-001	5.99659E-003	0.00000E+000	4.18607E-003	3.59960E-001	-1.08307E+000	3.57770E+000	10	...........
	15	0.213333	7.04292E-001	5.99602E-003	0.00000E+000	4.22295E-003	3.59960E-001	-1.09333E+000	3.57770E+000	10	...........
	16	0.226667	7.10469E-001	5.99329E-003	0.00000E+000	4.25805E-003	3.59960E-001	-1.08667E+000	3.57770E+000	10	...........
	17	0.24	7.16647E-001	5.99131E-003	0.00000E+000	4.29365E-003	3.59960E-001	-1.08327E+000	3.57770E+000	10	...........
	18	0.253333	7.22832E-001	5.99411E-003	0.00000E+000	4.33274E-003	3.59960E-001	-1.09350E+000	3.57770E+000	10	...........
	19	0.266667	7.28980E-001	5.99257E-003	0.00000E+000	4.36846E-003	3.59960E-001	-1.08669E+000	3.57770E+000	10	...........
	20	0.28	7.35061E-001	5.98905E-003	0.00000E+000	4.40231E-003	3.59960E-001	-1.08260E+000	3.57770E+000	10	...........
	21	0.293333	7.41190E-001	5.99504E-003	0.00000E+000	4.44346E-003	3.59960E-001	-1.09292E+000	3.57780E+000	10	...........
	22	0.306667	7.47322E-001	5.99532E-003	0.00000E+000	4.48044E-003	3.59960E-001	-1.08633E+000	3.57790E+000	10	...........
	23	0.32	7.53387E-001	5.98949E-003	0.00000E+000	4.51240E-003	3.59960E-001	-1.08271E+000	3.57790E+000	10	...........
	24	0.333333	7.59468E-001	5.99573E-003	0.00000E+000	4.55356E-003	3.59960E-001	-1.09280E+000	3.57790E+000	10	...........
	25	0.346667	7.65557E-001	5.99263E-003	0.00000E+000	4.58770E-003	3.59960E-001	-1.08600E+000	3.57790E+000	10	...........
	26	0.36	7.71640E-001	5.99394E-003	0.00000E+000	4.62516E-003	3.59960E-001	-1.08277E+000	3.57790E+000	10	...........
	27	0.373333	7.77747E-001	5.99491E-003	0.00000E+000	4.66252E-003	3.59960E-001	-1.09298E+000	3.57790E+000	10	...........
	28	0.386667	7.83803E-001	5.99555E-003	0.00000E+000	4.69933E-003	3.59960E-001	-1.08629E+000	3.57790E+000	10	...........
	29	0.4	7.89843E-001	5.99164E-003	0.00000E+000	4.73245E-003	3.59960E-001	-1.08247E+000	3.57790E+000	10	...........
	30	0.413333	7.95909E-001	5.99501E-003	0.00000E+000	4.77148E-003	3.59960E-001	-1.09252E+000	3.57790E+000	10	...........
	31	0.426667	8.01970E-001	5.99247E-003	0.00000E+000	4.80578E-003	3.59960E-001	-1.08599E+000	3.57790E+000	10	...........
	32	0.44	8.07979E-001	5.99392E-003	0.00000E+000	4.84296E-003	3.59960E-001	-1.08252E+000	3.57790E+000	10	...........
	33	0.453333	8.13993E-001	5.99357E-003	0.00000E+000	4.87872E-003	3.59960E-001	-1.09276E+000	3.57790E+000	10	...........
	34	0.466667	8.20060E-001	5.99316E-003	0.00000E+000	4.91475E-003	3.59960E-001	-1.08564E+000	3.57790E+000	10	...........
	35	0.48	8.26106E-001	5.99829E-003	0.00000E+000	4.95522E-003	3.59960E-001	-1.08210E+000	3.57790E+000	10	...........
	36	0.493333	8.32093E-001	5.99503E-003	0.00000E+000	4.98843E-003	3.59960E-001	-1.09269E+000	3.57790E+000	10	...........
	37	0.506667	8.38083E-001	5.99425E-003	0.00000E+000	5.02368E-003	3.59960E-001	-1.08609E+000	3.57790E+000	10	...........
	38	0.52	8.44079E-001	5.99225E-003	0.00000E+000	5.05793E-003	3.59960E-001	-1.08248E+000	3.57790E+000	10	...........
	39	0.533333	8.50086E-001	5.99381E-003	0.00000E+000	5.09526E-003	3.59960E-001	-1.09265E+000	3.57790E+000	10	...........
	40	0.546667	8.56006E-001	5.99414E-003	0.00000E+000	5.13101E-003	3.59960E-001	-1.08565E+000	3.57790E+000	10	...........
	41	0.56	8.62003E-001	5.99567E-003	0.00000E+000	5.16828E-003	3.59960E-001	-1.08242E+000	3.57790E+000	10	...........
	42	0.573333	8.67966E-001	5.99255E-003	0.00000E+000	5.20133E-003	3.59960E-001	-1.09285E+000	3.57790E+000	10	...........
	43	0.586667	8.73925E-001	5.99384E-003	0.00000E+000	5.23817E-003	3.59960E-001	-1.08593E+000	3.57790E+000	10	...........
	44	0.6	8.79826E-001	5.99477E-003	0.00000E+000	5.27436E-003	3.59960E-001	-1.08215E+000	3.57790E+000	10	...........
	45	0.613333	8.85746E-001	5.99258E-003	0.00000E+000	5.30790E-003	3.59960E-001	-1.09202E+000	3.57790E+000	10	...........
	46	0.626667	8.91640E-001	5.98985E-003	0.00000E+000	5.34079E-003	3.59960E-001	-1.08539E+000	3.57790E+000	10	...........
	47	0.64	8.97521E-001	5.99913E-003	0.00000E+000	5.38435E-003	3.59960E-001	-1.08201E+000	3.57790E+000	10	...........
	48	0.653333	9.03358E-001	5.99551E-003	0.00000E+000	5.41610E-003	3.59960E-001	-1.09217E+000	3.57790E+000	10	...........
	49	0.666667	9.09198E-001	5.99471E-003	0.00000E+000	5.45038E-003	3.59960E-001	-1.08534E+000	3.57790E+000	10	...........
	50	0.68	9.15026E-001	5.99477E-003	0.00000E+000	5.48537E-003	3.59960E-001	-1.08164E+000	3.57790E+000	10	...........
	51	0.693333	9.20893E-001	5.99244E-003	0.00000E+000	5.51839E-003	3.59960E-001	-1.09215E+000	3.57790E+000	10	...........
	52	0.706667	9.26643E-001	5.99427E-003	0.00000E+000	5.55455E-003	3.59960E-001	-1.08568E+000	3.57790E+000	10	...........
	53	0.72	9.32416E-001	5.99573E-003	0.00000E+000	5.59052E-003	3.59960E-001	-1.08191E+000	3.57790E+000	10	...........
	54	0.733333	9.38086E-001	5.99353E-003	0.00000E+000	5.62245E-003	3.59960E-001	-1.09199E+000	3.57790E+000	10	...........
	55	0.746667	9.43777E-001	5.99249E-003	0.00000E+000	5.65557E-003	3.59960E-001	-1.08516E+000	3.57790E+000	10	...........
	56	0.76	9.49473E-001	5.99552E-003	0.00000E+000	5.69259E-003	3.59960E-001	-1.08178E+000	3.57790E+000	10	...........
	57	0.773333	9.55110E-001	5.98976E-003	0.00000E+000	5.72087E-003	3.59960E-001	-1.09208E+000	3.57790E+000	10	...........
	58	0.786667	9.60701E-001	5.99604E-003	0.00000E+000	5.76040E-003	3.59960E-001	-1.08532E+000	3.57790E+000	10	...........
	59	0.8	9.66300E-001	5.99662E-003	0.00000E+000	5.79453E-003	3.59960E-001	-1.08141E+000	3.57790E+000	10	...........
	60	0.813333	9.71894E-001	5.99590E-003	0.00000E+000	5.82738E-003	3.59960E-001	-1.09175E+000	3.57790E+000	10	...........
	61	0.826667	9.77416E-001	5.98925E-003	0.00000E+000	5.85399E-003	3.59960E-001	-1.08544E+000	3.57790E+000	10	...........
	62	0.84	9.82880E-001	5.99113E-003	0.00000E+000	5.88856E-003	3.59960E-001	-1.08192E+000	3.57790E+000	10	...........
	63	0.853333	9.88336E-001	5.99634E-003	0.00000E+000	5.92639E-003	3.59960E-001	-1.09212E+000	3.57790E+000	10	...........
	64	0.866667	9.93682E-001	5.99687E-003	0.00000E+000	5.95898E-003	3.59960E-001	-1.08526E+000	3.57790E+000	10	...........
	65	0.876667	9.98428E-001	5.99385E-003	0.00000E+000	5.98443E-003	3.59960E-001	-1.08205E+000	3.57790E+000	10	...........
STARTTIMEOFFSET	QUANT	331.3601	Start Time Offset (s)