Folder: Tesis/Data/CV_CRGO300517_1/PWRCCD_CRGO300517_1/CHARGE_DISCHARGE (part 130)

File: CHARGE_#261.DTA
EXPLAIN
TAG	PWR800_CHARGE
TITLE	LABEL	PWR Cyclic Charge Discharge (Cell) - Charge Step	Test &Identifier
DATE	LABEL	22-6-2017	Date
TIME	LABEL	15:46:20	Time
NOTES	NOTES	3	&Notes...
	supercap test cell
	0.6mg
	6M KOH
PSTAT	PSTAT	IFC5000-01520	Potentiostat
CAPACITY	QUANT	1.00000E-003	Capacity (A-hr)
CELLTYPE	SELECTOR	1	&Cell Type
WORKINGCONNECTION	SELECTOR	0	&Working Lead
MAXCHARGETIME	VARIABLEANDUNITS	1.00000E+002	s	1.00000E+002	second(s)	Max &Charge Time
CHARGECURRENT	QUANT	6.00000E-003	&Charge Current (A)
VOLTAGEFINISH	TWOPARAM	F	1.00000E-003	3.60000E+003	&Voltage Finish	 I (A) < 	Max Time(s)
SAMPLETIME	QUANT	1.00000E-002	Sa&mple Period (s)
CHARGESTOPAT1	MULTIPARAM	4	1.00000E+000	Charge Stop At &1	Voltage > Limit	V
CHARGESTOPAT2	MULTIPARAM	0	0.00000E+000	Charge Stop At &2	None	N/A
AESBHCSELECTOR	TOGGLE	F	Save Both Half Cells
IRCOMP	TOGGLE	F	IR &Measure
EOC	QUANT	0	Open Circuit (V)
SEQUENCER	TOGGLE	TRUE	Run as Sequence
PSTATMODEL	IQUANT	53	Pstat Model
PSTATSECTION	LABEL	IFC5000-01520	Pstat Section
PSTATSERIALNO	LABEL	01520	Pstat Serial Number
CTRLMODE	IQUANT	0	Control Mode
ELECTROMETER	IQUANT	1	RE=0 or CS=1
IESTAB	IQUANT	0	I/E Stability
CASPEED	IQUANT	4	Control Amp Speed
CONVENTION	IQUANT	1	Current Convention
ICHRANGE	IQUANT	2	Ich Range
ICHRANGEMODE	TOGGLE	T	Ich Auto Range
ICHOFFSETENABLE	TOGGLE	F	Ich Offset Enable
ICHOFFSET	QUANT	0	Ich Offset (V)
ICHFILTER	IQUANT	1	Ich Filter
VCHRANGE	IQUANT	2	Vch Range
VCHRANGEMODE	TOGGLE	T	Vch Auto Range
VCHOFFSETENABLE	TOGGLE	F	Vch Offset Enable
VCHOFFSET	QUANT	0	Vch Offset (V)
VCHFILTER	IQUANT	1	Vch Filter
IERANGELOWERLIMIT	IQUANT	9	I/E Range Lower Limit
IERANGEMODE	TOGGLE	F	I/E AutoRange
IERANGE	IQUANT	10	I/E Range
ACHSELECT	IQUANT	1	Ach Select
ACHRANGE	IQUANT	2	Ach Range
ACHOFFSETENABLE	TOGGLE	F	Ach Offset Enable
ACHOFFSET	QUANT	0	Ach Offset (V)
ACHFILTER	IQUANT	1	Ach Filter
CABLEID	IQUANT	14	Cable ID
DCCALDATE	LABEL	20-10-2016	DC Calibration Date
ACCALDATE	LABEL	12/3/2015	AC Calibration Date
FRAMEWORKVERSION	QUANT	7.01	Framework Version
INSTRUMENTVERSION	LABEL	4.00	Instrument Version
CURVE	TABLE	64
	Pt	T	Vf	Im	Vu	Pwr	Sig	Ach	Temp	IERange	Over
	#	s	V	A	V	W	V	V	deg C	#	bits
	0	0.013333	6.12214E-001	5.98496E-003	0.00000E+000	3.66408E-003	3.59960E-001	-1.09893E+000	3.57690E+000	10	...........
	1	0.026667	6.20774E-001	5.99505E-003	0.00000E+000	3.72157E-003	3.59960E-001	-1.10798E+000	3.57690E+000	10	...........
	2	0.04	6.28648E-001	5.99673E-003	0.00000E+000	3.76983E-003	3.59960E-001	-1.10256E+000	3.57690E+000	10	...........
	3	0.053333	6.36068E-001	5.99498E-003	0.00000E+000	3.81322E-003	3.59960E-001	-1.09863E+000	3.57690E+000	10	...........
	4	0.066667	6.43262E-001	5.99768E-003	0.00000E+000	3.85808E-003	3.59960E-001	-1.10783E+000	3.57690E+000	10	...........
	5	0.08	6.50242E-001	5.99407E-003	0.00000E+000	3.89760E-003	3.59960E-001	-1.10272E+000	3.57690E+000	10	...........
	6	0.093333	6.57080E-001	5.99527E-003	0.00000E+000	3.93937E-003	3.59960E-001	-1.09876E+000	3.57690E+000	10	...........
	7	0.106667	6.63818E-001	5.99722E-003	0.00000E+000	3.98107E-003	3.59960E-001	-1.10796E+000	3.57690E+000	10	...........
	8	0.12	6.70456E-001	5.99128E-003	0.00000E+000	4.01689E-003	3.59960E-001	-1.10242E+000	3.57690E+000	10	...........
	9	0.133333	6.77022E-001	5.99377E-003	0.00000E+000	4.05791E-003	3.59960E-001	-1.09861E+000	3.57690E+000	10	...........
	10	0.146667	6.83564E-001	5.99441E-003	0.00000E+000	4.09756E-003	3.59960E-001	-1.10809E+000	3.57690E+000	10	...........
	11	0.16	6.90012E-001	5.99443E-003	0.00000E+000	4.13623E-003	3.59960E-001	-1.10259E+000	3.57690E+000	10	...........
	12	0.173333	6.96469E-001	5.99355E-003	0.00000E+000	4.17432E-003	3.59960E-001	-1.09842E+000	3.57690E+000	10	...........
	13	0.186667	7.02880E-001	5.99801E-003	0.00000E+000	4.21588E-003	3.59960E-001	-1.10749E+000	3.57690E+000	10	...........
	14	0.2	7.09238E-001	5.99410E-003	0.00000E+000	4.25124E-003	3.59960E-001	-1.10213E+000	3.57690E+000	10	...........
	15	0.213333	7.15619E-001	5.99479E-003	0.00000E+000	4.28999E-003	3.59960E-001	-1.09848E+000	3.57690E+000	10	...........
	16	0.226667	7.21975E-001	5.99626E-003	0.00000E+000	4.32915E-003	3.59960E-001	-1.10759E+000	3.57690E+000	10	...........
	17	0.24	7.28238E-001	5.99190E-003	0.00000E+000	4.36353E-003	3.59960E-001	-1.10196E+000	3.57690E+000	10	...........
	18	0.253333	7.34521E-001	5.99394E-003	0.00000E+000	4.40267E-003	3.59960E-001	-1.09809E+000	3.57690E+000	10	...........
	19	0.266667	7.40846E-001	5.99670E-003	0.00000E+000	4.44263E-003	3.59960E-001	-1.10753E+000	3.57690E+000	10	...........
	20	0.28	7.47138E-001	5.99099E-003	0.00000E+000	4.47609E-003	3.59960E-001	-1.10201E+000	3.57690E+000	10	...........
	21	0.293333	7.53395E-001	5.99344E-003	0.00000E+000	4.51543E-003	3.59960E-001	-1.09820E+000	3.57690E+000	10	...........
	22	0.306667	7.59570E-001	5.99112E-003	0.00000E+000	4.55068E-003	3.59960E-001	-1.10741E+000	3.57690E+000	10	...........
	23	0.32	7.65796E-001	5.99611E-003	0.00000E+000	4.59180E-003	3.59960E-001	-1.10178E+000	3.57690E+000	10	...........
	24	0.333333	7.72072E-001	5.99417E-003	0.00000E+000	4.62793E-003	3.59960E-001	-1.09810E+000	3.57690E+000	10	...........
	25	0.346667	7.78257E-001	5.99884E-003	0.00000E+000	4.66864E-003	3.59960E-001	-1.10731E+000	3.57690E+000	10	...........
	26	0.36	7.84482E-001	5.99410E-003	0.00000E+000	4.70227E-003	3.59960E-001	-1.10200E+000	3.57690E+000	10	...........
	27	0.373333	7.90637E-001	5.99383E-003	0.00000E+000	4.73894E-003	3.59960E-001	-1.09799E+000	3.57690E+000	10	...........
	28	0.386667	7.96849E-001	5.99321E-003	0.00000E+000	4.77568E-003	3.59960E-001	-1.10738E+000	3.57690E+000	10	...........
	29	0.4	8.03024E-001	5.98805E-003	0.00000E+000	4.80855E-003	3.59960E-001	-1.10191E+000	3.57690E+000	10	...........
	30	0.413333	8.09198E-001	5.99499E-003	0.00000E+000	4.85114E-003	3.59960E-001	-1.09808E+000	3.57690E+000	10	...........
	31	0.426667	8.15294E-001	5.99429E-003	0.00000E+000	4.88711E-003	3.59960E-001	-1.10754E+000	3.57690E+000	10	...........
	32	0.44	8.21474E-001	5.99413E-003	0.00000E+000	4.92402E-003	3.59960E-001	-1.10184E+000	3.57690E+000	10	...........
	33	0.453333	8.27623E-001	5.99361E-003	0.00000E+000	4.96045E-003	3.59960E-001	-1.09801E+000	3.57690E+000	10	...........
	34	0.466667	8.33776E-001	5.99316E-003	0.00000E+000	4.99695E-003	3.59960E-001	-1.10748E+000	3.57690E+000	10	...........
	35	0.48	8.39865E-001	5.99702E-003	0.00000E+000	5.03669E-003	3.59960E-001	-1.10178E+000	3.57690E+000	10	...........
	36	0.493333	8.45985E-001	5.99579E-003	0.00000E+000	5.07235E-003	3.59960E-001	-1.09800E+000	3.57690E+000	10	...........
	37	0.506667	8.52093E-001	5.99161E-003	0.00000E+000	5.10541E-003	3.59960E-001	-1.10704E+000	3.57690E+000	10	...........
	38	0.52	8.58208E-001	5.99985E-003	0.00000E+000	5.14912E-003	3.59960E-001	-1.10132E+000	3.57690E+000	10	...........
	39	0.533333	8.64235E-001	5.99481E-003	0.00000E+000	5.18093E-003	3.59960E-001	-1.09771E+000	3.57690E+000	10	...........
	40	0.546667	8.70334E-001	5.99486E-003	0.00000E+000	5.21752E-003	3.59960E-001	-1.10746E+000	3.57690E+000	10	...........
	41	0.56	8.76332E-001	5.99476E-003	0.00000E+000	5.25340E-003	3.59960E-001	-1.10133E+000	3.57690E+000	10	...........
	42	0.573333	8.82349E-001	5.99596E-003	0.00000E+000	5.29053E-003	3.59960E-001	-1.09759E+000	3.57690E+000	10	...........
	43	0.586667	8.88349E-001	5.99518E-003	0.00000E+000	5.32581E-003	3.59960E-001	-1.10703E+000	3.57690E+000	10	...........
	44	0.6	8.94337E-001	5.99193E-003	0.00000E+000	5.35881E-003	3.59960E-001	-1.10130E+000	3.57690E+000	10	...........
	45	0.613333	9.00280E-001	5.99095E-003	0.00000E+000	5.39353E-003	3.59960E-001	-1.09786E+000	3.57690E+000	10	...........
	46	0.626667	9.06238E-001	5.99435E-003	0.00000E+000	5.43231E-003	3.59960E-001	-1.10720E+000	3.57690E+000	10	...........
	47	0.64	9.12179E-001	5.99784E-003	0.00000E+000	5.47110E-003	3.59960E-001	-1.10118E+000	3.57690E+000	10	...........
	48	0.653333	9.18075E-001	5.99395E-003	0.00000E+000	5.50289E-003	3.59960E-001	-1.09773E+000	3.57690E+000	10	...........
	49	0.666667	9.23970E-001	5.99709E-003	0.00000E+000	5.54113E-003	3.59960E-001	-1.10711E+000	3.57690E+000	10	...........
	50	0.68	9.29768E-001	5.99949E-003	0.00000E+000	5.57813E-003	3.59960E-001	-1.10149E+000	3.57690E+000	10	...........
	51	0.693333	9.35538E-001	5.99418E-003	0.00000E+000	5.60778E-003	3.59960E-001	-1.09790E+000	3.57690E+000	10	...........
	52	0.706667	9.41341E-001	5.99185E-003	0.00000E+000	5.64038E-003	3.59960E-001	-1.10710E+000	3.57690E+000	10	...........
	53	0.72	9.47123E-001	5.99237E-003	0.00000E+000	5.67552E-003	3.59960E-001	-1.10139E+000	3.57690E+000	10	...........
	54	0.733333	9.52822E-001	5.99495E-003	0.00000E+000	5.71212E-003	3.59960E-001	-1.09797E+000	3.57690E+000	10	...........
	55	0.746667	9.58514E-001	5.99520E-003	0.00000E+000	5.74648E-003	3.59960E-001	-1.10732E+000	3.57690E+000	10	...........
	56	0.76	9.64146E-001	5.99343E-003	0.00000E+000	5.77854E-003	3.59960E-001	-1.10159E+000	3.57690E+000	10	...........
	57	0.773333	9.69775E-001	5.99491E-003	0.00000E+000	5.81371E-003	3.59960E-001	-1.09781E+000	3.57690E+000	10	...........
	58	0.786667	9.75352E-001	5.99412E-003	0.00000E+000	5.84637E-003	3.59960E-001	-1.10710E+000	3.57690E+000	10	...........
	59	0.8	9.80883E-001	5.99301E-003	0.00000E+000	5.87844E-003	3.59960E-001	-1.10147E+000	3.57690E+000	10	...........
	60	0.813333	9.86368E-001	5.99294E-003	0.00000E+000	5.91124E-003	3.59960E-001	-1.09777E+000	3.57690E+000	10	...........
	61	0.826667	9.91807E-001	5.99785E-003	0.00000E+000	5.94871E-003	3.59960E-001	-1.10690E+000	3.57690E+000	10	...........
	62	0.84	9.97243E-001	5.99263E-003	0.00000E+000	5.97611E-003	3.59960E-001	-1.10125E+000	3.57690E+000	10	...........
	63	0.841667	1.00024E+000	5.98828E-003	0.00000E+000	5.98975E-003	3.59960E-001	-1.10894E+000	3.57690E+000	10	...........
STARTTIMEOFFSET	QUANT	476.405	Start Time Offset (s)

File: CHARGE_#262.DTA
EXPLAIN
TAG	PWR800_CHARGE
TITLE	LABEL	PWR Cyclic Charge Discharge (Cell) - Charge Step	Test &Identifier
DATE	LABEL	22-6-2017	Date
TIME	LABEL	15:46:22	Time
NOTES	NOTES	3	&Notes...
	supercap test cell
	0.6mg
	6M KOH
PSTAT	PSTAT	IFC5000-01520	Potentiostat
CAPACITY	QUANT	1.00000E-003	Capacity (A-hr)
CELLTYPE	SELECTOR	1	&Cell Type
WORKINGCONNECTION	SELECTOR	0	&Working Lead
MAXCHARGETIME	VARIABLEANDUNITS	1.00000E+002	s	1.00000E+002	second(s)	Max &Charge Time
CHARGECURRENT	QUANT	6.00000E-003	&Charge Current (A)
VOLTAGEFINISH	TWOPARAM	F	1.00000E-003	3.60000E+003	&Voltage Finish	 I (A) < 	Max Time(s)
SAMPLETIME	QUANT	1.00000E-002	Sa&mple Period (s)
CHARGESTOPAT1	MULTIPARAM	4	1.00000E+000	Charge Stop At &1	Voltage > Limit	V
CHARGESTOPAT2	MULTIPARAM	0	0.00000E+000	Charge Stop At &2	None	N/A
AESBHCSELECTOR	TOGGLE	F	Save Both Half Cells
IRCOMP	TOGGLE	F	IR &Measure
EOC	QUANT	0	Open Circuit (V)
SEQUENCER	TOGGLE	TRUE	Run as Sequence
PSTATMODEL	IQUANT	53	Pstat Model
PSTATSECTION	LABEL	IFC5000-01520	Pstat Section
PSTATSERIALNO	LABEL	01520	Pstat Serial Number
CTRLMODE	IQUANT	0	Control Mode
ELECTROMETER	IQUANT	1	RE=0 or CS=1
IESTAB	IQUANT	0	I/E Stability
CASPEED	IQUANT	4	Control Amp Speed
CONVENTION	IQUANT	1	Current Convention
ICHRANGE	IQUANT	2	Ich Range
ICHRANGEMODE	TOGGLE	T	Ich Auto Range
ICHOFFSETENABLE	TOGGLE	F	Ich Offset Enable
ICHOFFSET	QUANT	0	Ich Offset (V)
ICHFILTER	IQUANT	1	Ich Filter
VCHRANGE	IQUANT	2	Vch Range
VCHRANGEMODE	TOGGLE	T	Vch Auto Range
VCHOFFSETENABLE	TOGGLE	F	Vch Offset Enable
VCHOFFSET	QUANT	0	Vch Offset (V)
VCHFILTER	IQUANT	1	Vch Filter
IERANGELOWERLIMIT	IQUANT	9	I/E Range Lower Limit
IERANGEMODE	TOGGLE	F	I/E AutoRange
IERANGE	IQUANT	10	I/E Range
ACHSELECT	IQUANT	1	Ach Select
ACHRANGE	IQUANT	2	Ach Range
ACHOFFSETENABLE	TOGGLE	F	Ach Offset Enable
ACHOFFSET	QUANT	0	Ach Offset (V)
ACHFILTER	IQUANT	1	Ach Filter
CABLEID	IQUANT	14	Cable ID
DCCALDATE	LABEL	20-10-2016	DC Calibration Date
ACCALDATE	LABEL	12/3/2015	AC Calibration Date
FRAMEWORKVERSION	QUANT	7.01	Framework Version
INSTRUMENTVERSION	LABEL	4.00	Instrument Version
CURVE	TABLE	64
	Pt	T	Vf	Im	Vu	Pwr	Sig	Ach	Temp	IERange	Over
	#	s	V	A	V	W	V	V	deg C	#	bits
	0	0.013333	6.12378E-001	5.99059E-003	0.00000E+000	3.66851E-003	3.59960E-001	-1.09990E+000	3.57810E+000	10	...........
	1	0.026667	6.21019E-001	5.99398E-003	0.00000E+000	3.72237E-003	3.59960E-001	-1.10891E+000	3.57810E+000	10	...........
	2	0.04	6.28862E-001	5.99619E-003	0.00000E+000	3.77078E-003	3.59960E-001	-1.09932E+000	3.57810E+000	10	...........
	3	0.053333	6.36316E-001	5.98985E-003	0.00000E+000	3.81144E-003	3.59960E-001	-1.09981E+000	3.57810E+000	10	...........
	4	0.066667	6.43546E-001	5.99406E-003	0.00000E+000	3.85745E-003	3.59960E-001	-1.10904E+000	3.57810E+000	10	...........
	5	0.08	6.50526E-001	5.99193E-003	0.00000E+000	3.89791E-003	3.59960E-001	-1.09930E+000	3.57810E+000	10	...........
	6	0.093333	6.57400E-001	5.99500E-003	0.00000E+000	3.94111E-003	3.59960E-001	-1.09994E+000	3.57810E+000	10	...........
	7	0.106667	6.64139E-001	5.99696E-003	0.00000E+000	3.98281E-003	3.59960E-001	-1.10897E+000	3.57810E+000	10	...........
	8	0.12	6.70815E-001	5.99734E-003	0.00000E+000	4.02310E-003	3.59960E-001	-1.09931E+000	3.57810E+000	10	...........
	9	0.133333	6.77406E-001	5.99272E-003	0.00000E+000	4.05950E-003	3.59960E-001	-1.10000E+000	3.57810E+000	10	...........
	10	0.146667	6.83922E-001	5.99229E-003	0.00000E+000	4.09826E-003	3.59960E-001	-1.10885E+000	3.57810E+000	10	...........
	11	0.16	6.90383E-001	5.99795E-003	0.00000E+000	4.14089E-003	3.59960E-001	-1.09940E+000	3.57810E+000	10	...........
	12	0.173333	6.96849E-001	5.99835E-003	0.00000E+000	4.17995E-003	3.59960E-001	-1.09995E+000	3.57810E+000	10	...........
	13	0.186667	7.03233E-001	5.99241E-003	0.00000E+000	4.21406E-003	3.59960E-001	-1.10881E+000	3.57810E+000	10	...........
	14	0.2	7.09600E-001	5.99645E-003	0.00000E+000	4.25508E-003	3.59960E-001	-1.09930E+000	3.57810E+000	10	...........
	15	0.213333	7.15929E-001	5.99345E-003	0.00000E+000	4.29088E-003	3.59960E-001	-1.10005E+000	3.57810E+000	10	...........
	16	0.226667	7.22298E-001	5.99677E-003	0.00000E+000	4.33146E-003	3.59960E-001	-1.10894E+000	3.57810E+000	10	...........
	17	0.24	7.28622E-001	5.99245E-003	0.00000E+000	4.36623E-003	3.59960E-001	-1.09922E+000	3.57810E+000	10	...........
	18	0.253333	7.34841E-001	5.99718E-003	0.00000E+000	4.40697E-003	3.59960E-001	-1.09968E+000	3.57810E+000	10	...........
	19	0.266667	7.41135E-001	5.99348E-003	0.00000E+000	4.44197E-003	3.59960E-001	-1.10887E+000	3.57810E+000	10	...........
	20	0.28	7.47423E-001	5.99527E-003	0.00000E+000	4.48101E-003	3.59960E-001	-1.09919E+000	3.57810E+000	10	...........
	21	0.293333	7.53657E-001	5.99929E-003	0.00000E+000	4.52140E-003	3.59960E-001	-1.09973E+000	3.57810E+000	10	...........
	22	0.306667	7.59871E-001	5.99251E-003	0.00000E+000	4.55354E-003	3.59960E-001	-1.10864E+000	3.57810E+000	10	...........
	23	0.32	7.66101E-001	5.99389E-003	0.00000E+000	4.59192E-003	3.59960E-001	-1.09886E+000	3.57810E+000	10	...........
	24	0.333333	7.72339E-001	5.99462E-003	0.00000E+000	4.62987E-003	3.59960E-001	-1.09953E+000	3.57810E+000	10	...........
	25	0.346667	7.78582E-001	5.99726E-003	0.00000E+000	4.66936E-003	3.59960E-001	-1.10847E+000	3.57810E+000	10	...........
	26	0.36	7.84747E-001	5.99365E-003	0.00000E+000	4.70349E-003	3.59960E-001	-1.09911E+000	3.57810E+000	10	...........
	27	0.373333	7.90940E-001	5.99277E-003	0.00000E+000	4.73992E-003	3.59960E-001	-1.09966E+000	3.57810E+000	10	...........
	28	0.386667	7.97185E-001	5.99380E-003	0.00000E+000	4.77817E-003	3.59960E-001	-1.10819E+000	3.57810E+000	10	...........
	29	0.4	8.03355E-001	5.99088E-003	0.00000E+000	4.81280E-003	3.59960E-001	-1.09882E+000	3.57810E+000	10	...........
	30	0.413333	8.09471E-001	5.99412E-003	0.00000E+000	4.85206E-003	3.59960E-001	-1.09951E+000	3.57810E+000	10	...........
	31	0.426667	8.15661E-001	5.99672E-003	0.00000E+000	4.89129E-003	3.59960E-001	-1.10827E+000	3.57810E+000	10	...........
	32	0.44	8.21798E-001	5.99337E-003	0.00000E+000	4.92534E-003	3.59960E-001	-1.09887E+000	3.57810E+000	10	...........
	33	0.453333	8.27963E-001	5.99092E-003	0.00000E+000	4.96026E-003	3.59960E-001	-1.09927E+000	3.57810E+000	10	...........
	34	0.466667	8.34064E-001	5.99432E-003	0.00000E+000	4.99965E-003	3.59960E-001	-1.10828E+000	3.57810E+000	10	...........
	35	0.48	8.40159E-001	5.99322E-003	0.00000E+000	5.03525E-003	3.59960E-001	-1.09901E+000	3.57782E+000	10	...........
	36	0.493333	8.46328E-001	5.99633E-003	0.00000E+000	5.07486E-003	3.59960E-001	-1.09947E+000	3.57700E+000	10	...........
	37	0.506667	8.52389E-001	5.98885E-003	0.00000E+000	5.10483E-003	3.59960E-001	-1.10837E+000	3.57700E+000	10	...........
	38	0.52	8.58457E-001	5.99877E-003	0.00000E+000	5.14968E-003	3.59960E-001	-1.09877E+000	3.57700E+000	10	...........
	39	0.533333	8.64499E-001	5.99492E-003	0.00000E+000	5.18260E-003	3.59960E-001	-1.09928E+000	3.57700E+000	10	...........
	40	0.546667	8.70559E-001	5.99483E-003	0.00000E+000	5.21885E-003	3.59960E-001	-1.10859E+000	3.57700E+000	10	...........
	41	0.56	8.76638E-001	5.99405E-003	0.00000E+000	5.25462E-003	3.59960E-001	-1.09881E+000	3.57700E+000	10	...........
	42	0.573333	8.82656E-001	5.99835E-003	0.00000E+000	5.29448E-003	3.59960E-001	-1.09917E+000	3.57700E+000	10	...........
	43	0.586667	8.88634E-001	5.99307E-003	0.00000E+000	5.32565E-003	3.59960E-001	-1.10834E+000	3.57700E+000	10	...........
	44	0.6	8.94588E-001	5.99354E-003	0.00000E+000	5.36175E-003	3.59960E-001	-1.09874E+000	3.57700E+000	10	...........
	45	0.613333	9.00523E-001	5.99354E-003	0.00000E+000	5.39732E-003	3.59960E-001	-1.09899E+000	3.57700E+000	10	...........
	46	0.626667	9.06469E-001	5.99543E-003	0.00000E+000	5.43467E-003	3.59960E-001	-1.10810E+000	3.57700E+000	10	...........
	47	0.64	9.12410E-001	5.99200E-003	0.00000E+000	5.46716E-003	3.59960E-001	-1.09814E+000	3.57700E+000	10	...........
	48	0.653333	9.18306E-001	5.99405E-003	0.00000E+000	5.50438E-003	3.59960E-001	-1.09887E+000	3.57700E+000	10	...........
	49	0.666667	9.24203E-001	5.99457E-003	0.00000E+000	5.54021E-003	3.59960E-001	-1.10783E+000	3.57700E+000	10	...........
	50	0.68	9.30017E-001	5.98942E-003	0.00000E+000	5.57026E-003	3.59960E-001	-1.09835E+000	3.57700E+000	10	...........
	51	0.693333	9.35821E-001	5.99056E-003	0.00000E+000	5.60609E-003	3.59960E-001	-1.09891E+000	3.57700E+000	10	...........
	52	0.706667	9.41592E-001	5.99620E-003	0.00000E+000	5.64598E-003	3.59960E-001	-1.10770E+000	3.57700E+000	10	...........
	53	0.72	9.47341E-001	5.99699E-003	0.00000E+000	5.68120E-003	3.59960E-001	-1.09836E+000	3.57700E+000	10	...........
	54	0.733333	9.53038E-001	5.99142E-003	0.00000E+000	5.71005E-003	3.59960E-001	-1.09889E+000	3.57700E+000	10	...........
	55	0.746667	9.58745E-001	5.99456E-003	0.00000E+000	5.74726E-003	3.59960E-001	-1.10788E+000	3.57700E+000	10	...........
	56	0.76	9.64388E-001	5.99380E-003	0.00000E+000	5.78035E-003	3.59960E-001	-1.09827E+000	3.57700E+000	10	...........
	57	0.773333	9.69969E-001	5.99336E-003	0.00000E+000	5.81338E-003	3.59960E-001	-1.09871E+000	3.57700E+000	10	...........
	58	0.786667	9.75579E-001	5.99028E-003	0.00000E+000	5.84399E-003	3.59960E-001	-1.10768E+000	3.57700E+000	10	...........
	59	0.8	9.81118E-001	5.99489E-003	0.00000E+000	5.88169E-003	3.59960E-001	-1.09841E+000	3.57700E+000	10	...........
	60	0.813333	9.86565E-001	5.99119E-003	0.00000E+000	5.91070E-003	3.59960E-001	-1.09869E+000	3.57700E+000	10	...........
	61	0.826667	9.92059E-001	5.99354E-003	0.00000E+000	5.94594E-003	3.59960E-001	-1.10785E+000	3.57700E+000	10	...........
	62	0.84	9.97463E-001	5.99583E-003	0.00000E+000	5.98061E-003	3.59960E-001	-1.09824E+000	3.57700E+000	10	...........
	63	0.841667	1.00046E+000	5.98870E-003	0.00000E+000	5.99148E-003	3.59960E-001	-1.11091E+000	3.57700E+000	10	...........
STARTTIMEOFFSET	QUANT	478.0784	Start Time Offset (s)