Folder: Tesis/Data/CV_CRGO300517_1/PWRCCD_CRGO300517_1/CHARGE_DISCHARGE (part 31)

File: CHARGE_#61.DTA
EXPLAIN
TAG	PWR800_CHARGE
TITLE	LABEL	PWR Cyclic Charge Discharge (Cell) - Charge Step	Test &Identifier
DATE	LABEL	22-6-2017	Date
TIME	LABEL	15:37:46	Time
NOTES	NOTES	3	&Notes...
	supercap test cell
	0.6mg
	6M KOH
PSTAT	PSTAT	IFC5000-01520	Potentiostat
CAPACITY	QUANT	1.00000E-003	Capacity (A-hr)
CELLTYPE	SELECTOR	1	&Cell Type
WORKINGCONNECTION	SELECTOR	0	&Working Lead
MAXCHARGETIME	VARIABLEANDUNITS	1.00000E+002	s	1.00000E+002	second(s)	Max &Charge Time
CHARGECURRENT	QUANT	6.00000E-003	&Charge Current (A)
VOLTAGEFINISH	TWOPARAM	F	1.00000E-003	3.60000E+003	&Voltage Finish	 I (A) < 	Max Time(s)
SAMPLETIME	QUANT	1.00000E-002	Sa&mple Period (s)
CHARGESTOPAT1	MULTIPARAM	4	1.00000E+000	Charge Stop At &1	Voltage > Limit	V
CHARGESTOPAT2	MULTIPARAM	0	0.00000E+000	Charge Stop At &2	None	N/A
AESBHCSELECTOR	TOGGLE	F	Save Both Half Cells
IRCOMP	TOGGLE	F	IR &Measure
EOC	QUANT	0	Open Circuit (V)
SEQUENCER	TOGGLE	TRUE	Run as Sequence
PSTATMODEL	IQUANT	53	Pstat Model
PSTATSECTION	LABEL	IFC5000-01520	Pstat Section
PSTATSERIALNO	LABEL	01520	Pstat Serial Number
CTRLMODE	IQUANT	0	Control Mode
ELECTROMETER	IQUANT	1	RE=0 or CS=1
IESTAB	IQUANT	0	I/E Stability
CASPEED	IQUANT	4	Control Amp Speed
CONVENTION	IQUANT	1	Current Convention
ICHRANGE	IQUANT	2	Ich Range
ICHRANGEMODE	TOGGLE	T	Ich Auto Range
ICHOFFSETENABLE	TOGGLE	F	Ich Offset Enable
ICHOFFSET	QUANT	0	Ich Offset (V)
ICHFILTER	IQUANT	1	Ich Filter
VCHRANGE	IQUANT	2	Vch Range
VCHRANGEMODE	TOGGLE	T	Vch Auto Range
VCHOFFSETENABLE	TOGGLE	F	Vch Offset Enable
VCHOFFSET	QUANT	0	Vch Offset (V)
VCHFILTER	IQUANT	1	Vch Filter
IERANGELOWERLIMIT	IQUANT	9	I/E Range Lower Limit
IERANGEMODE	TOGGLE	F	I/E AutoRange
IERANGE	IQUANT	10	I/E Range
ACHSELECT	IQUANT	1	Ach Select
ACHRANGE	IQUANT	2	Ach Range
ACHOFFSETENABLE	TOGGLE	F	Ach Offset Enable
ACHOFFSET	QUANT	0	Ach Offset (V)
ACHFILTER	IQUANT	1	Ach Filter
CABLEID	IQUANT	14	Cable ID
DCCALDATE	LABEL	20-10-2016	DC Calibration Date
ACCALDATE	LABEL	12/3/2015	AC Calibration Date
FRAMEWORKVERSION	QUANT	7.01	Framework Version
INSTRUMENTVERSION	LABEL	4.00	Instrument Version
CURVE	TABLE	73
	Pt	T	Vf	Im	Vu	Pwr	Sig	Ach	Temp	IERange	Over
	#	s	V	A	V	W	V	V	deg C	#	bits
	0	0.013333	5.78302E-001	5.99045E-003	0.00000E+000	3.46429E-003	3.59960E-001	-1.04450E+000	3.57740E+000	10	...........
	1	0.026667	5.86401E-001	5.99136E-003	0.00000E+000	3.51334E-003	3.59960E-001	-1.05581E+000	3.57740E+000	10	...........
	2	0.04	5.93871E-001	5.99294E-003	0.00000E+000	3.55903E-003	3.59960E-001	-1.04664E+000	3.57740E+000	10	...........
	3	0.053333	6.00928E-001	5.99551E-003	0.00000E+000	3.60287E-003	3.59960E-001	-1.04419E+000	3.57740E+000	10	...........
	4	0.066667	6.07695E-001	5.99174E-003	0.00000E+000	3.64115E-003	3.59960E-001	-1.05616E+000	3.57740E+000	10	...........
	5	0.08	6.14380E-001	5.99410E-003	0.00000E+000	3.68266E-003	3.59960E-001	-1.04676E+000	3.57740E+000	10	...........
	6	0.093333	6.20864E-001	5.99295E-003	0.00000E+000	3.72080E-003	3.59960E-001	-1.04389E+000	3.57740E+000	10	...........
	7	0.106667	6.27204E-001	5.99381E-003	0.00000E+000	3.75934E-003	3.59960E-001	-1.05584E+000	3.57740E+000	10	...........
	8	0.12	6.33464E-001	5.99277E-003	0.00000E+000	3.79620E-003	3.59960E-001	-1.04682E+000	3.57740E+000	10	...........
	9	0.133333	6.39665E-001	5.99711E-003	0.00000E+000	3.83614E-003	3.59960E-001	-1.04416E+000	3.57740E+000	10	...........
	10	0.146667	6.45804E-001	5.99405E-003	0.00000E+000	3.87098E-003	3.59960E-001	-1.05574E+000	3.57740E+000	10	...........
	11	0.16	6.51868E-001	5.99588E-003	0.00000E+000	3.90852E-003	3.59960E-001	-1.04662E+000	3.57740E+000	10	...........
	12	0.173333	6.57886E-001	5.99472E-003	0.00000E+000	3.94384E-003	3.59960E-001	-1.04349E+000	3.57740E+000	10	...........
	13	0.186667	6.63907E-001	5.99212E-003	0.00000E+000	3.97821E-003	3.59960E-001	-1.05569E+000	3.57740E+000	10	...........
	14	0.2	6.69877E-001	5.99674E-003	0.00000E+000	4.01708E-003	3.59960E-001	-1.04674E+000	3.57740E+000	10	...........
	15	0.213333	6.75805E-001	5.99419E-003	0.00000E+000	4.05090E-003	3.59960E-001	-1.04372E+000	3.57740E+000	10	...........
	16	0.226667	6.81718E-001	5.99862E-003	0.00000E+000	4.08937E-003	3.59960E-001	-1.05561E+000	3.57740E+000	10	...........
	17	0.24	6.87615E-001	5.99208E-003	0.00000E+000	4.12024E-003	3.59960E-001	-1.04672E+000	3.57740E+000	10	...........
	18	0.253333	6.93521E-001	5.99231E-003	0.00000E+000	4.15579E-003	3.59960E-001	-1.04396E+000	3.57740E+000	10	...........
	19	0.266667	6.99359E-001	5.99437E-003	0.00000E+000	4.19221E-003	3.59960E-001	-1.05560E+000	3.57740E+000	10	...........
	20	0.28	7.05213E-001	5.99516E-003	0.00000E+000	4.22786E-003	3.59960E-001	-1.04689E+000	3.57740E+000	10	...........
	21	0.293333	7.11057E-001	5.99639E-003	0.00000E+000	4.26377E-003	3.59960E-001	-1.04354E+000	3.57740E+000	10	...........
	22	0.306667	7.16916E-001	5.99548E-003	0.00000E+000	4.29825E-003	3.59960E-001	-1.05548E+000	3.57740E+000	10	...........
	23	0.32	7.22771E-001	5.99496E-003	0.00000E+000	4.33299E-003	3.59960E-001	-1.04692E+000	3.57740E+000	10	...........
	24	0.333333	7.28547E-001	5.99593E-003	0.00000E+000	4.36832E-003	3.59960E-001	-1.04352E+000	3.57740E+000	10	...........
	25	0.346667	7.34340E-001	5.99628E-003	0.00000E+000	4.40331E-003	3.59960E-001	-1.05484E+000	3.57740E+000	10	...........
	26	0.36	7.40143E-001	5.99369E-003	0.00000E+000	4.43619E-003	3.59960E-001	-1.04633E+000	3.57740E+000	10	...........
	27	0.373333	7.45919E-001	5.99444E-003	0.00000E+000	4.47136E-003	3.59960E-001	-1.04281E+000	3.57740E+000	10	...........
	28	0.386667	7.51741E-001	5.99520E-003	0.00000E+000	4.50684E-003	3.59960E-001	-1.05490E+000	3.57740E+000	10	...........
	29	0.4	7.57537E-001	5.99363E-003	0.00000E+000	4.54040E-003	3.59960E-001	-1.04677E+000	3.57740E+000	10	...........
	30	0.413333	7.63310E-001	5.99370E-003	0.00000E+000	4.57505E-003	3.59960E-001	-1.04282E+000	3.57740E+000	10	...........
	31	0.426667	7.69110E-001	5.99379E-003	0.00000E+000	4.60988E-003	3.59960E-001	-1.05458E+000	3.57740E+000	10	...........
	32	0.44	7.74877E-001	5.99453E-003	0.00000E+000	4.64503E-003	3.59960E-001	-1.04656E+000	3.57740E+000	10	...........
	33	0.453333	7.80667E-001	5.99219E-003	0.00000E+000	4.67790E-003	3.59960E-001	-1.04294E+000	3.57740E+000	10	...........
	34	0.466667	7.86411E-001	5.99181E-003	0.00000E+000	4.71203E-003	3.59960E-001	-1.05477E+000	3.57740E+000	10	...........
	35	0.48	7.92206E-001	5.99235E-003	0.00000E+000	4.74718E-003	3.59960E-001	-1.04662E+000	3.57740E+000	10	...........
	36	0.493333	7.98023E-001	5.99459E-003	0.00000E+000	4.78383E-003	3.59960E-001	-1.04260E+000	3.57740E+000	10	...........
	37	0.506667	8.03755E-001	5.99634E-003	0.00000E+000	4.81959E-003	3.59960E-001	-1.05433E+000	3.57740E+000	10	...........
	38	0.52	8.09511E-001	5.99302E-003	0.00000E+000	4.85142E-003	3.59960E-001	-1.04676E+000	3.57740E+000	10	...........
	39	0.533333	8.15262E-001	5.99491E-003	0.00000E+000	4.88742E-003	3.59960E-001	-1.04263E+000	3.57740E+000	10	...........
	40	0.546667	8.21053E-001	5.99174E-003	0.00000E+000	4.91953E-003	3.59960E-001	-1.05411E+000	3.57740E+000	10	...........
	41	0.56	8.26840E-001	5.99347E-003	0.00000E+000	4.95564E-003	3.59960E-001	-1.04658E+000	3.57740E+000	10	...........
	42	0.573333	8.32617E-001	5.99632E-003	0.00000E+000	4.99263E-003	3.59960E-001	-1.04252E+000	3.57740E+000	10	...........
	43	0.586667	8.38352E-001	5.99147E-003	0.00000E+000	5.02296E-003	3.59960E-001	-1.05427E+000	3.57740E+000	10	...........
	44	0.6	8.44118E-001	5.99435E-003	0.00000E+000	5.05994E-003	3.59960E-001	-1.04721E+000	3.57740E+000	10	...........
	45	0.613333	8.49838E-001	5.99426E-003	0.00000E+000	5.09415E-003	3.59960E-001	-1.04268E+000	3.57740E+000	10	...........
	46	0.626667	8.55602E-001	5.99295E-003	0.00000E+000	5.12758E-003	3.59960E-001	-1.05393E+000	3.57740E+000	10	...........
	47	0.64	8.61353E-001	5.99536E-003	0.00000E+000	5.16412E-003	3.59960E-001	-1.04702E+000	3.57740E+000	10	...........
	48	0.653333	8.67085E-001	5.99222E-003	0.00000E+000	5.19576E-003	3.59960E-001	-1.04280E+000	3.57740E+000	10	...........
	49	0.666667	8.72826E-001	5.99236E-003	0.00000E+000	5.23029E-003	3.59960E-001	-1.05369E+000	3.57740E+000	10	...........
	50	0.68	8.78550E-001	5.99037E-003	0.00000E+000	5.26284E-003	3.59960E-001	-1.04684E+000	3.57740E+000	10	...........
	51	0.693333	8.84312E-001	5.99228E-003	0.00000E+000	5.29905E-003	3.59960E-001	-1.04206E+000	3.57740E+000	10	...........
	52	0.706667	8.89982E-001	5.99212E-003	0.00000E+000	5.33288E-003	3.59960E-001	-1.05328E+000	3.57740E+000	10	...........
	53	0.72	8.95672E-001	5.99335E-003	0.00000E+000	5.36808E-003	3.59960E-001	-1.04699E+000	3.57740E+000	10	...........
	54	0.733333	9.01320E-001	5.99548E-003	0.00000E+000	5.40385E-003	3.59960E-001	-1.04234E+000	3.57740E+000	10	...........
	55	0.746667	9.06963E-001	5.99505E-003	0.00000E+000	5.43729E-003	3.59960E-001	-1.05331E+000	3.57740E+000	10	...........
	56	0.76	9.12609E-001	5.99496E-003	0.00000E+000	5.47106E-003	3.59960E-001	-1.04671E+000	3.57795E+000	10	...........
	57	0.773333	9.18296E-001	5.99488E-003	0.00000E+000	5.50507E-003	3.59960E-001	-1.04216E+000	3.57850E+000	10	...........
	58	0.786667	9.23972E-001	5.99389E-003	0.00000E+000	5.53818E-003	3.59960E-001	-1.05311E+000	3.57850E+000	10	...........
	59	0.8	9.29567E-001	5.99394E-003	0.00000E+000	5.57176E-003	3.59960E-001	-1.04723E+000	3.57850E+000	10	...........
	60	0.813333	9.35146E-001	5.99357E-003	0.00000E+000	5.60487E-003	3.59960E-001	-1.04203E+000	3.57850E+000	10	...........
	61	0.826667	9.40702E-001	5.99349E-003	0.00000E+000	5.63809E-003	3.59960E-001	-1.05283E+000	3.57850E+000	10	...........
	62	0.84	9.46287E-001	5.99088E-003	0.00000E+000	5.66909E-003	3.59960E-001	-1.04698E+000	3.57850E+000	10	...........
	63	0.853333	9.51830E-001	5.99714E-003	0.00000E+000	5.70826E-003	3.59960E-001	-1.04200E+000	3.57850E+000	10	...........
	64	0.866667	9.57346E-001	5.99423E-003	0.00000E+000	5.73855E-003	3.59960E-001	-1.05290E+000	3.57850E+000	10	...........
	65	0.88	9.62825E-001	5.99238E-003	0.00000E+000	5.76962E-003	3.59960E-001	-1.04723E+000	3.57850E+000	10	...........
	66	0.893333	9.68233E-001	5.99263E-003	0.00000E+000	5.80227E-003	3.59960E-001	-1.04207E+000	3.57850E+000	10	...........
	67	0.906667	9.73714E-001	5.99562E-003	0.00000E+000	5.83802E-003	3.59960E-001	-1.05296E+000	3.57850E+000	10	...........
	68	0.92	9.79101E-001	5.99085E-003	0.00000E+000	5.86565E-003	3.59960E-001	-1.04756E+000	3.57850E+000	10	...........
	69	0.933333	9.84496E-001	5.99232E-003	0.00000E+000	5.89941E-003	3.59960E-001	-1.04226E+000	3.57850E+000	10	...........
	70	0.946667	9.89779E-001	5.99784E-003	0.00000E+000	5.93653E-003	3.59960E-001	-1.05269E+000	3.57850E+000	10	...........
	71	0.96	9.95072E-001	5.99378E-003	0.00000E+000	5.96424E-003	3.59960E-001	-1.04734E+000	3.57850E+000	10	...........
	72	0.96667	9.99094E-001	5.99312E-003	0.00000E+000	5.98769E-003	3.59960E-001	-1.04699E+000	3.57850E+000	10	...........
STARTTIMEOFFSET	QUANT	121.8533	Start Time Offset (s)

File: CHARGE_#62.DTA
EXPLAIN
TAG	PWR800_CHARGE
TITLE	LABEL	PWR Cyclic Charge Discharge (Cell) - Charge Step	Test &Identifier
DATE	LABEL	22-6-2017	Date
TIME	LABEL	15:37:49	Time
NOTES	NOTES	3	&Notes...
	supercap test cell
	0.6mg
	6M KOH
PSTAT	PSTAT	IFC5000-01520	Potentiostat
CAPACITY	QUANT	1.00000E-003	Capacity (A-hr)
CELLTYPE	SELECTOR	1	&Cell Type
WORKINGCONNECTION	SELECTOR	0	&Working Lead
MAXCHARGETIME	VARIABLEANDUNITS	1.00000E+002	s	1.00000E+002	second(s)	Max &Charge Time
CHARGECURRENT	QUANT	6.00000E-003	&Charge Current (A)
VOLTAGEFINISH	TWOPARAM	F	1.00000E-003	3.60000E+003	&Voltage Finish	 I (A) < 	Max Time(s)
SAMPLETIME	QUANT	1.00000E-002	Sa&mple Period (s)
CHARGESTOPAT1	MULTIPARAM	4	1.00000E+000	Charge Stop At &1	Voltage > Limit	V
CHARGESTOPAT2	MULTIPARAM	0	0.00000E+000	Charge Stop At &2	None	N/A
AESBHCSELECTOR	TOGGLE	F	Save Both Half Cells
IRCOMP	TOGGLE	F	IR &Measure
EOC	QUANT	0	Open Circuit (V)
SEQUENCER	TOGGLE	TRUE	Run as Sequence
PSTATMODEL	IQUANT	53	Pstat Model
PSTATSECTION	LABEL	IFC5000-01520	Pstat Section
PSTATSERIALNO	LABEL	01520	Pstat Serial Number
CTRLMODE	IQUANT	0	Control Mode
ELECTROMETER	IQUANT	1	RE=0 or CS=1
IESTAB	IQUANT	0	I/E Stability
CASPEED	IQUANT	4	Control Amp Speed
CONVENTION	IQUANT	1	Current Convention
ICHRANGE	IQUANT	2	Ich Range
ICHRANGEMODE	TOGGLE	T	Ich Auto Range
ICHOFFSETENABLE	TOGGLE	F	Ich Offset Enable
ICHOFFSET	QUANT	0	Ich Offset (V)
ICHFILTER	IQUANT	1	Ich Filter
VCHRANGE	IQUANT	2	Vch Range
VCHRANGEMODE	TOGGLE	T	Vch Auto Range
VCHOFFSETENABLE	TOGGLE	F	Vch Offset Enable
VCHOFFSET	QUANT	0	Vch Offset (V)
VCHFILTER	IQUANT	1	Vch Filter
IERANGELOWERLIMIT	IQUANT	9	I/E Range Lower Limit
IERANGEMODE	TOGGLE	F	I/E AutoRange
IERANGE	IQUANT	10	I/E Range
ACHSELECT	IQUANT	1	Ach Select
ACHRANGE	IQUANT	2	Ach Range
ACHOFFSETENABLE	TOGGLE	F	Ach Offset Enable
ACHOFFSET	QUANT	0	Ach Offset (V)
ACHFILTER	IQUANT	1	Ach Filter
CABLEID	IQUANT	14	Cable ID
DCCALDATE	LABEL	20-10-2016	DC Calibration Date
ACCALDATE	LABEL	12/3/2015	AC Calibration Date
FRAMEWORKVERSION	QUANT	7.01	Framework Version
INSTRUMENTVERSION	LABEL	4.00	Instrument Version
CURVE	TABLE	73
	Pt	T	Vf	Im	Vu	Pwr	Sig	Ach	Temp	IERange	Over
	#	s	V	A	V	W	V	V	deg C	#	bits
	0	0.013333	5.78081E-001	5.99593E-003	0.00000E+000	3.46613E-003	3.59960E-001	-1.05126E+000	3.57710E+000	10	...........
	1	0.026667	5.86264E-001	5.99446E-003	0.00000E+000	3.51433E-003	3.59960E-001	-1.04441E+000	3.57710E+000	10	...........
	2	0.04	5.93771E-001	5.99717E-003	0.00000E+000	3.56095E-003	3.59960E-001	-1.05313E+000	3.57710E+000	10	...........
	3	0.053333	6.00859E-001	5.99482E-003	0.00000E+000	3.60204E-003	3.59960E-001	-1.05100E+000	3.57725E+000	10	...........
	4	0.066667	6.07614E-001	5.99411E-003	0.00000E+000	3.64211E-003	3.59960E-001	-1.04406E+000	3.57750E+000	10	...........
	5	0.08	6.14300E-001	5.99198E-003	0.00000E+000	3.68087E-003	3.59960E-001	-1.05295E+000	3.57750E+000	10	...........
	6	0.093333	6.20804E-001	5.99161E-003	0.00000E+000	3.71962E-003	3.59960E-001	-1.05128E+000	3.57750E+000	10	...........
	7	0.106667	6.27145E-001	5.99620E-003	0.00000E+000	3.76049E-003	3.59960E-001	-1.04421E+000	3.57750E+000	10	...........
	8	0.12	6.33413E-001	5.99060E-003	0.00000E+000	3.79453E-003	3.59960E-001	-1.05273E+000	3.57750E+000	10	...........
	9	0.133333	6.39636E-001	5.99414E-003	0.00000E+000	3.83406E-003	3.59960E-001	-1.05131E+000	3.57750E+000	10	...........
	10	0.146667	6.45776E-001	5.99319E-003	0.00000E+000	3.87025E-003	3.59960E-001	-1.04419E+000	3.57750E+000	10	...........
	11	0.16	6.51859E-001	5.99419E-003	0.00000E+000	3.90737E-003	3.59960E-001	-1.05264E+000	3.57750E+000	10	...........
	12	0.173333	6.57885E-001	5.99183E-003	0.00000E+000	3.94194E-003	3.59960E-001	-1.05143E+000	3.57750E+000	10	...........
	13	0.186667	6.63911E-001	5.99142E-003	0.00000E+000	3.97777E-003	3.59960E-001	-1.04386E+000	3.57750E+000	10	...........
	14	0.2	6.69907E-001	5.99497E-003	0.00000E+000	4.01607E-003	3.59960E-001	-1.05205E+000	3.57750E+000	10	...........
	15	0.213333	6.75819E-001	5.99351E-003	0.00000E+000	4.05053E-003	3.59960E-001	-1.05096E+000	3.57750E+000	10	...........
	16	0.226667	6.81743E-001	5.99441E-003	0.00000E+000	4.08664E-003	3.59960E-001	-1.04373E+000	3.57750E+000	10	...........
	17	0.24	6.87658E-001	5.99343E-003	0.00000E+000	4.12143E-003	3.59960E-001	-1.05174E+000	3.57750E+000	10	...........
	18	0.253333	6.93567E-001	5.99639E-003	0.00000E+000	4.15890E-003	3.59960E-001	-1.05102E+000	3.57750E+000	10	...........
	19	0.266667	6.99414E-001	5.99281E-003	0.00000E+000	4.19146E-003	3.59960E-001	-1.04346E+000	3.57750E+000	10	...........
	20	0.28	7.05254E-001	5.99753E-003	0.00000E+000	4.22978E-003	3.59960E-001	-1.05174E+000	3.57750E+000	10	...........
	21	0.293333	7.11105E-001	5.99578E-003	0.00000E+000	4.26363E-003	3.59960E-001	-1.05116E+000	3.57750E+000	10	...........
	22	0.306667	7.16974E-001	5.99690E-003	0.00000E+000	4.29962E-003	3.59960E-001	-1.04332E+000	3.57750E+000	10	...........
	23	0.32	7.22828E-001	5.99847E-003	0.00000E+000	4.33586E-003	3.59960E-001	-1.05138E+000	3.57750E+000	10	...........
	24	0.333333	7.28655E-001	5.99294E-003	0.00000E+000	4.36678E-003	3.59960E-001	-1.05092E+000	3.57750E+000	10	...........
	25	0.346667	7.34417E-001	5.99323E-003	0.00000E+000	4.40153E-003	3.59960E-001	-1.04332E+000	3.57750E+000	10	...........
	26	0.36	7.40223E-001	5.99347E-003	0.00000E+000	4.43650E-003	3.59960E-001	-1.05153E+000	3.57750E+000	10	...........
	27	0.373333	7.46033E-001	5.99196E-003	0.00000E+000	4.47019E-003	3.59960E-001	-1.05126E+000	3.57750E+000	10	...........
	28	0.386667	7.51822E-001	5.99712E-003	0.00000E+000	4.50877E-003	3.59960E-001	-1.04317E+000	3.57750E+000	10	...........
	29	0.4	7.57626E-001	5.99663E-003	0.00000E+000	4.54320E-003	3.59960E-001	-1.05122E+000	3.57750E+000	10	...........
	30	0.413333	7.63395E-001	5.99317E-003	0.00000E+000	4.57515E-003	3.59960E-001	-1.05147E+000	3.57750E+000	10	...........
	31	0.426667	7.69216E-001	5.99746E-003	0.00000E+000	4.61335E-003	3.59960E-001	-1.04348E+000	3.57750E+000	10	...........
	32	0.44	7.74972E-001	5.99845E-003	0.00000E+000	4.64863E-003	3.59960E-001	-1.05116E+000	3.57750E+000	10	...........
	33	0.453333	7.80772E-001	5.99492E-003	0.00000E+000	4.68066E-003	3.59960E-001	-1.05148E+000	3.57750E+000	10	...........
	34	0.466667	7.86583E-001	5.99692E-003	0.00000E+000	4.71707E-003	3.59960E-001	-1.04321E+000	3.57750E+000	10	...........
	35	0.48	7.92351E-001	5.99520E-003	0.00000E+000	4.75030E-003	3.59960E-001	-1.05074E+000	3.57750E+000	10	...........
	36	0.493333	7.98161E-001	5.98981E-003	0.00000E+000	4.78083E-003	3.59960E-001	-1.05145E+000	3.57750E+000	10	...........
	37	0.506667	8.03953E-001	5.99465E-003	0.00000E+000	4.81941E-003	3.59960E-001	-1.04346E+000	3.57750E+000	10	...........
	38	0.52	8.09747E-001	5.99441E-003	0.00000E+000	4.85396E-003	3.59960E-001	-1.05028E+000	3.57750E+000	10	...........
	39	0.533333	8.15509E-001	5.99472E-003	0.00000E+000	4.88875E-003	3.59960E-001	-1.05108E+000	3.57750E+000	10	...........
	40	0.546667	8.21263E-001	5.99090E-003	0.00000E+000	4.92011E-003	3.59960E-001	-1.04293E+000	3.57750E+000	10	...........
	41	0.56	8.27059E-001	5.99387E-003	0.00000E+000	4.95729E-003	3.59960E-001	-1.05023E+000	3.57750E+000	10	...........
	42	0.573333	8.32825E-001	5.99497E-003	0.00000E+000	4.99276E-003	3.59960E-001	-1.05130E+000	3.57750E+000	10	...........
	43	0.586667	8.38577E-001	5.99429E-003	0.00000E+000	5.02667E-003	3.59960E-001	-1.04266E+000	3.57750E+000	10	...........
	44	0.6	8.44366E-001	5.99176E-003	0.00000E+000	5.05924E-003	3.59960E-001	-1.05003E+000	3.57750E+000	10	...........
	45	0.613333	8.50129E-001	5.99311E-003	0.00000E+000	5.09492E-003	3.59960E-001	-1.05136E+000	3.57750E+000	10	...........
	46	0.626667	8.55894E-001	5.99739E-003	0.00000E+000	5.13313E-003	3.59960E-001	-1.04296E+000	3.57750E+000	10	...........
	47	0.64	8.61639E-001	5.99281E-003	0.00000E+000	5.16364E-003	3.59960E-001	-1.04997E+000	3.57750E+000	10	...........
	48	0.653333	8.67361E-001	5.99154E-003	0.00000E+000	5.19683E-003	3.59960E-001	-1.05133E+000	3.57750E+000	10	...........
	49	0.666667	8.73113E-001	5.99248E-003	0.00000E+000	5.23211E-003	3.59960E-001	-1.04289E+000	3.57750E+000	10	...........
	50	0.68	8.78793E-001	5.99471E-003	0.00000E+000	5.26811E-003	3.59960E-001	-1.04988E+000	3.57750E+000	10	...........
	51	0.693333	8.84513E-001	5.99470E-003	0.00000E+000	5.30239E-003	3.59960E-001	-1.05172E+000	3.57750E+000	10	...........
	52	0.706667	8.90242E-001	5.99900E-003	0.00000E+000	5.34056E-003	3.59960E-001	-1.04275E+000	3.57750E+000	10	...........
	53	0.72	8.95956E-001	5.99301E-003	0.00000E+000	5.36947E-003	3.59960E-001	-1.04938E+000	3.57750E+000	10	...........
	54	0.733333	9.01623E-001	5.99076E-003	0.00000E+000	5.40140E-003	3.59960E-001	-1.05160E+000	3.57750E+000	10	...........
	55	0.746667	9.07301E-001	5.99114E-003	0.00000E+000	5.43577E-003	3.59960E-001	-1.04308E+000	3.57750E+000	10	...........
	56	0.76	9.12957E-001	5.99535E-003	0.00000E+000	5.47349E-003	3.59960E-001	-1.04967E+000	3.57750E+000	10	...........
	57	0.773333	9.18619E-001	5.99260E-003	0.00000E+000	5.50492E-003	3.59960E-001	-1.05182E+000	3.57750E+000	10	...........
	58	0.786667	9.24307E-001	5.99391E-003	0.00000E+000	5.54021E-003	3.59960E-001	-1.04293E+000	3.57750E+000	10	...........
	59	0.8	9.29897E-001	5.99220E-003	0.00000E+000	5.57212E-003	3.59960E-001	-1.04918E+000	3.57750E+000	10	...........
	60	0.813333	9.35504E-001	5.99623E-003	0.00000E+000	5.60950E-003	3.59960E-001	-1.05193E+000	3.57750E+000	10	...........
	61	0.826667	9.41052E-001	5.99249E-003	0.00000E+000	5.63924E-003	3.59960E-001	-1.04294E+000	3.57750E+000	10	...........
	62	0.84	9.46587E-001	5.99154E-003	0.00000E+000	5.67151E-003	3.59960E-001	-1.04888E+000	3.57750E+000	10	...........
	63	0.853333	9.52116E-001	5.99356E-003	0.00000E+000	5.70657E-003	3.59960E-001	-1.05143E+000	3.57750E+000	10	...........
	64	0.866667	9.57617E-001	5.99592E-003	0.00000E+000	5.74179E-003	3.59960E-001	-1.04247E+000	3.57750E+000	10	...........
	65	0.88	9.63095E-001	5.99109E-003	0.00000E+000	5.76999E-003	3.59960E-001	-1.04861E+000	3.57750E+000	10	...........
	66	0.893333	9.68557E-001	5.99357E-003	0.00000E+000	5.80512E-003	3.59960E-001	-1.05176E+000	3.57750E+000	10	...........
	67	0.906667	9.74029E-001	5.99365E-003	0.00000E+000	5.83799E-003	3.59960E-001	-1.04245E+000	3.57750E+000	10	...........
	68	0.92	9.79425E-001	5.99323E-003	0.00000E+000	5.86992E-003	3.59960E-001	-1.04832E+000	3.57750E+000	10	...........
	69	0.933333	9.84791E-001	5.99312E-003	0.00000E+000	5.90197E-003	3.59960E-001	-1.05184E+000	3.57750E+000	10	...........
	70	0.946667	9.90152E-001	5.99691E-003	0.00000E+000	5.93785E-003	3.59960E-001	-1.04279E+000	3.57750E+000	10	...........
	71	0.96	9.95460E-001	5.99050E-003	0.00000E+000	5.96330E-003	3.59960E-001	-1.04857E+000	3.57750E+000	10	...........
	72	0.96667	9.99449E-001	5.99815E-003	0.00000E+000	5.99485E-003	3.59960E-001	-1.04635E+000	3.57750E+000	10	...........
STARTTIMEOFFSET	QUANT	123.7733	Start Time Offset (s)