Folder: Tesis/Data/CV_CRGO300517_1/PWRCCD_CRGO300517_1/CHARGE_DISCHARGE (part 102)

File: CHARGE_#203.DTA
EXPLAIN
TAG	PWR800_CHARGE
TITLE	LABEL	PWR Cyclic Charge Discharge (Cell) - Charge Step	Test &Identifier
DATE	LABEL	22-6-2017	Date
TIME	LABEL	15:43:56	Time
NOTES	NOTES	3	&Notes...
	supercap test cell
	0.6mg
	6M KOH
PSTAT	PSTAT	IFC5000-01520	Potentiostat
CAPACITY	QUANT	1.00000E-003	Capacity (A-hr)
CELLTYPE	SELECTOR	1	&Cell Type
WORKINGCONNECTION	SELECTOR	0	&Working Lead
MAXCHARGETIME	VARIABLEANDUNITS	1.00000E+002	s	1.00000E+002	second(s)	Max &Charge Time
CHARGECURRENT	QUANT	6.00000E-003	&Charge Current (A)
VOLTAGEFINISH	TWOPARAM	F	1.00000E-003	3.60000E+003	&Voltage Finish	 I (A) < 	Max Time(s)
SAMPLETIME	QUANT	1.00000E-002	Sa&mple Period (s)
CHARGESTOPAT1	MULTIPARAM	4	1.00000E+000	Charge Stop At &1	Voltage > Limit	V
CHARGESTOPAT2	MULTIPARAM	0	0.00000E+000	Charge Stop At &2	None	N/A
AESBHCSELECTOR	TOGGLE	F	Save Both Half Cells
IRCOMP	TOGGLE	F	IR &Measure
EOC	QUANT	0	Open Circuit (V)
SEQUENCER	TOGGLE	TRUE	Run as Sequence
PSTATMODEL	IQUANT	53	Pstat Model
PSTATSECTION	LABEL	IFC5000-01520	Pstat Section
PSTATSERIALNO	LABEL	01520	Pstat Serial Number
CTRLMODE	IQUANT	0	Control Mode
ELECTROMETER	IQUANT	1	RE=0 or CS=1
IESTAB	IQUANT	0	I/E Stability
CASPEED	IQUANT	4	Control Amp Speed
CONVENTION	IQUANT	1	Current Convention
ICHRANGE	IQUANT	2	Ich Range
ICHRANGEMODE	TOGGLE	T	Ich Auto Range
ICHOFFSETENABLE	TOGGLE	F	Ich Offset Enable
ICHOFFSET	QUANT	0	Ich Offset (V)
ICHFILTER	IQUANT	1	Ich Filter
VCHRANGE	IQUANT	2	Vch Range
VCHRANGEMODE	TOGGLE	T	Vch Auto Range
VCHOFFSETENABLE	TOGGLE	F	Vch Offset Enable
VCHOFFSET	QUANT	0	Vch Offset (V)
VCHFILTER	IQUANT	1	Vch Filter
IERANGELOWERLIMIT	IQUANT	9	I/E Range Lower Limit
IERANGEMODE	TOGGLE	F	I/E AutoRange
IERANGE	IQUANT	10	I/E Range
ACHSELECT	IQUANT	1	Ach Select
ACHRANGE	IQUANT	2	Ach Range
ACHOFFSETENABLE	TOGGLE	F	Ach Offset Enable
ACHOFFSET	QUANT	0	Ach Offset (V)
ACHFILTER	IQUANT	1	Ach Filter
CABLEID	IQUANT	14	Cable ID
DCCALDATE	LABEL	20-10-2016	DC Calibration Date
ACCALDATE	LABEL	12/3/2015	AC Calibration Date
FRAMEWORKVERSION	QUANT	7.01	Framework Version
INSTRUMENTVERSION	LABEL	4.00	Instrument Version
CURVE	TABLE	65
	Pt	T	Vf	Im	Vu	Pwr	Sig	Ach	Temp	IERange	Over
	#	s	V	A	V	W	V	V	deg C	#	bits
	0	0.013333	6.06519E-001	5.99073E-003	0.00000E+000	3.63349E-003	3.59960E-001	-1.07816E+000	3.57680E+000	10	...........
	1	0.026667	6.15017E-001	5.99152E-003	0.00000E+000	3.68488E-003	3.59960E-001	-1.08795E+000	3.57680E+000	10	...........
	2	0.04	6.22795E-001	5.99893E-003	0.00000E+000	3.73610E-003	3.59960E-001	-1.07977E+000	3.57680E+000	10	...........
	3	0.053333	6.30097E-001	5.99573E-003	0.00000E+000	3.77789E-003	3.59960E-001	-1.07817E+000	3.57680E+000	10	...........
	4	0.066667	6.37222E-001	5.99725E-003	0.00000E+000	3.82158E-003	3.59960E-001	-1.08839E+000	3.57680E+000	10	...........
	5	0.08	6.44127E-001	5.99980E-003	0.00000E+000	3.86464E-003	3.59960E-001	-1.07990E+000	3.57680E+000	10	...........
	6	0.093333	6.50890E-001	6.00023E-003	0.00000E+000	3.90549E-003	3.59960E-001	-1.07871E+000	3.57750E+000	10	...........
	7	0.106667	6.57536E-001	5.99358E-003	0.00000E+000	3.94100E-003	3.59960E-001	-1.08855E+000	3.57750E+000	10	...........
	8	0.12	6.64124E-001	5.99547E-003	0.00000E+000	3.98173E-003	3.59960E-001	-1.08044E+000	3.57750E+000	10	...........
	9	0.133333	6.70635E-001	5.99246E-003	0.00000E+000	4.01875E-003	3.59960E-001	-1.07915E+000	3.57750E+000	10	...........
	10	0.146667	6.77051E-001	5.99501E-003	0.00000E+000	4.05893E-003	3.59960E-001	-1.08923E+000	3.57750E+000	10	...........
	11	0.16	6.83392E-001	5.99028E-003	0.00000E+000	4.09371E-003	3.59960E-001	-1.08061E+000	3.57750E+000	10	...........
	12	0.173333	6.89714E-001	5.99745E-003	0.00000E+000	4.13653E-003	3.59960E-001	-1.07953E+000	3.57750E+000	10	...........
	13	0.186667	6.96062E-001	5.99241E-003	0.00000E+000	4.17109E-003	3.59960E-001	-1.08990E+000	3.57750E+000	10	...........
	14	0.2	7.02311E-001	5.99177E-003	0.00000E+000	4.20809E-003	3.59960E-001	-1.08142E+000	3.57750E+000	10	...........
	15	0.213333	7.08555E-001	5.99245E-003	0.00000E+000	4.24598E-003	3.59960E-001	-1.08035E+000	3.57750E+000	10	...........
	16	0.226667	7.14834E-001	5.99544E-003	0.00000E+000	4.28574E-003	3.59960E-001	-1.09027E+000	3.57750E+000	10	...........
	17	0.24	7.21108E-001	5.99259E-003	0.00000E+000	4.32131E-003	3.59960E-001	-1.08178E+000	3.57750E+000	10	...........
	18	0.253333	7.27302E-001	5.99329E-003	0.00000E+000	4.35893E-003	3.59960E-001	-1.08102E+000	3.57750E+000	10	...........
	19	0.266667	7.33477E-001	5.99722E-003	0.00000E+000	4.39882E-003	3.59960E-001	-1.09146E+000	3.57750E+000	10	...........
	20	0.28	7.39700E-001	5.99434E-003	0.00000E+000	4.43402E-003	3.59960E-001	-1.08274E+000	3.57750E+000	10	...........
	21	0.293333	7.45871E-001	5.99104E-003	0.00000E+000	4.46854E-003	3.59960E-001	-1.08141E+000	3.57750E+000	10	...........
	22	0.306667	7.51996E-001	5.99683E-003	0.00000E+000	4.50959E-003	3.59960E-001	-1.09148E+000	3.57750E+000	10	...........
	23	0.32	7.58155E-001	5.99176E-003	0.00000E+000	4.54268E-003	3.59960E-001	-1.08279E+000	3.57750E+000	10	...........
	24	0.333333	7.64293E-001	5.99752E-003	0.00000E+000	4.58386E-003	3.59960E-001	-1.08170E+000	3.57750E+000	10	...........
	25	0.346667	7.70430E-001	5.99555E-003	0.00000E+000	4.61916E-003	3.59960E-001	-1.09153E+000	3.57750E+000	10	...........
	26	0.36	7.76585E-001	5.99445E-003	0.00000E+000	4.65520E-003	3.59960E-001	-1.08281E+000	3.57750E+000	10	...........
	27	0.373333	7.82709E-001	5.99464E-003	0.00000E+000	4.69205E-003	3.59960E-001	-1.08133E+000	3.57750E+000	10	...........
	28	0.386667	7.88792E-001	5.99691E-003	0.00000E+000	4.73032E-003	3.59960E-001	-1.09132E+000	3.57750E+000	10	...........
	29	0.4	7.94923E-001	5.99282E-003	0.00000E+000	4.76383E-003	3.59960E-001	-1.08246E+000	3.57750E+000	10	...........
	30	0.413333	8.01050E-001	5.99692E-003	0.00000E+000	4.80384E-003	3.59960E-001	-1.08157E+000	3.57750E+000	10	...........
	31	0.426667	8.07131E-001	5.99560E-003	0.00000E+000	4.83923E-003	3.59960E-001	-1.09139E+000	3.57750E+000	10	...........
	32	0.44	8.13192E-001	5.99598E-003	0.00000E+000	4.87589E-003	3.59960E-001	-1.08236E+000	3.57750E+000	10	...........
	33	0.453333	8.19277E-001	5.99173E-003	0.00000E+000	4.90888E-003	3.59960E-001	-1.08154E+000	3.57750E+000	10	...........
	34	0.466667	8.25338E-001	5.99023E-003	0.00000E+000	4.94397E-003	3.59960E-001	-1.09141E+000	3.57750E+000	10	...........
	35	0.48	8.31367E-001	5.99938E-003	0.00000E+000	4.98769E-003	3.59960E-001	-1.08249E+000	3.57750E+000	10	...........
	36	0.493333	8.37368E-001	5.99693E-003	0.00000E+000	5.02164E-003	3.59960E-001	-1.08148E+000	3.57750E+000	10	...........
	37	0.506667	8.43442E-001	5.99511E-003	0.00000E+000	5.05653E-003	3.59960E-001	-1.09154E+000	3.57750E+000	10	...........
	38	0.52	8.49466E-001	5.99369E-003	0.00000E+000	5.09143E-003	3.59960E-001	-1.08252E+000	3.57750E+000	10	...........
	39	0.533333	8.55427E-001	5.99408E-003	0.00000E+000	5.12750E-003	3.59960E-001	-1.08164E+000	3.57750E+000	10	...........
	40	0.546667	8.61436E-001	5.99499E-003	0.00000E+000	5.16430E-003	3.59960E-001	-1.09165E+000	3.57750E+000	10	...........
	41	0.56	8.67451E-001	5.99180E-003	0.00000E+000	5.19759E-003	3.59960E-001	-1.08257E+000	3.57750E+000	10	...........
	42	0.573333	8.73448E-001	5.99281E-003	0.00000E+000	5.23441E-003	3.59960E-001	-1.08160E+000	3.57750E+000	10	...........
	43	0.586667	8.79483E-001	5.99230E-003	0.00000E+000	5.27013E-003	3.59960E-001	-1.09199E+000	3.57750E+000	10	...........
	44	0.6	8.85414E-001	5.99545E-003	0.00000E+000	5.30846E-003	3.59960E-001	-1.08296E+000	3.57750E+000	10	...........
	45	0.613333	8.91324E-001	5.99652E-003	0.00000E+000	5.34484E-003	3.59960E-001	-1.08224E+000	3.57750E+000	10	...........
	46	0.626667	8.97243E-001	5.99634E-003	0.00000E+000	5.38017E-003	3.59960E-001	-1.09188E+000	3.57750E+000	10	...........
	47	0.64	9.03118E-001	5.99276E-003	0.00000E+000	5.41217E-003	3.59960E-001	-1.08294E+000	3.57750E+000	10	...........
	48	0.653333	9.08993E-001	5.99534E-003	0.00000E+000	5.44972E-003	3.59960E-001	-1.08234E+000	3.57750E+000	10	...........
	49	0.666667	9.14832E-001	5.99164E-003	0.00000E+000	5.48135E-003	3.59960E-001	-1.09232E+000	3.57750E+000	10	...........
	50	0.68	9.20698E-001	6.00072E-003	0.00000E+000	5.52485E-003	3.59960E-001	-1.08305E+000	3.57750E+000	10	...........
	51	0.693333	9.26532E-001	5.99057E-003	0.00000E+000	5.55045E-003	3.59960E-001	-1.08210E+000	3.57750E+000	10	...........
	52	0.706667	9.32288E-001	5.99393E-003	0.00000E+000	5.58806E-003	3.59960E-001	-1.09176E+000	3.57750E+000	10	...........
	53	0.72	9.38046E-001	5.99374E-003	0.00000E+000	5.62240E-003	3.59960E-001	-1.08292E+000	3.57750E+000	10	...........
	54	0.733333	9.43771E-001	5.99357E-003	0.00000E+000	5.65656E-003	3.59960E-001	-1.08228E+000	3.57750E+000	10	...........
	55	0.746667	9.49494E-001	5.99065E-003	0.00000E+000	5.68809E-003	3.59960E-001	-1.09199E+000	3.57750E+000	10	...........
	56	0.76	9.55180E-001	5.99040E-003	0.00000E+000	5.72191E-003	3.59960E-001	-1.08291E+000	3.57750E+000	10	...........
	57	0.773333	9.60806E-001	5.99767E-003	0.00000E+000	5.76260E-003	3.59960E-001	-1.08238E+000	3.57750E+000	10	...........
	58	0.786667	9.66359E-001	5.99753E-003	0.00000E+000	5.79576E-003	3.59960E-001	-1.09215E+000	3.57750E+000	10	...........
	59	0.8	9.71924E-001	5.99023E-003	0.00000E+000	5.82205E-003	3.59960E-001	-1.08314E+000	3.57750E+000	10	...........
	60	0.813333	9.77496E-001	5.99442E-003	0.00000E+000	5.85952E-003	3.59960E-001	-1.08249E+000	3.57750E+000	10	...........
	61	0.826667	9.82998E-001	5.99135E-003	0.00000E+000	5.88948E-003	3.59960E-001	-1.09221E+000	3.57750E+000	10	...........
	62	0.84	9.88381E-001	5.99209E-003	0.00000E+000	5.92247E-003	3.59960E-001	-1.08306E+000	3.57750E+000	10	...........
	63	0.853333	9.93770E-001	5.99271E-003	0.00000E+000	5.95537E-003	3.59960E-001	-1.08256E+000	3.57750E+000	10	...........
	64	0.863333	9.98472E-001	5.99285E-003	0.00000E+000	5.98369E-003	3.59960E-001	-1.09320E+000	3.57750E+000	10	...........
STARTTIMEOFFSET	QUANT	378.1267	Start Time Offset (s)

File: CHARGE_#204.DTA
EXPLAIN
TAG	PWR800_CHARGE
TITLE	LABEL	PWR Cyclic Charge Discharge (Cell) - Charge Step	Test &Identifier
DATE	LABEL	22-6-2017	Date
TIME	LABEL	15:43:58	Time
NOTES	NOTES	3	&Notes...
	supercap test cell
	0.6mg
	6M KOH
PSTAT	PSTAT	IFC5000-01520	Potentiostat
CAPACITY	QUANT	1.00000E-003	Capacity (A-hr)
CELLTYPE	SELECTOR	1	&Cell Type
WORKINGCONNECTION	SELECTOR	0	&Working Lead
MAXCHARGETIME	VARIABLEANDUNITS	1.00000E+002	s	1.00000E+002	second(s)	Max &Charge Time
CHARGECURRENT	QUANT	6.00000E-003	&Charge Current (A)
VOLTAGEFINISH	TWOPARAM	F	1.00000E-003	3.60000E+003	&Voltage Finish	 I (A) < 	Max Time(s)
SAMPLETIME	QUANT	1.00000E-002	Sa&mple Period (s)
CHARGESTOPAT1	MULTIPARAM	4	1.00000E+000	Charge Stop At &1	Voltage > Limit	V
CHARGESTOPAT2	MULTIPARAM	0	0.00000E+000	Charge Stop At &2	None	N/A
AESBHCSELECTOR	TOGGLE	F	Save Both Half Cells
IRCOMP	TOGGLE	F	IR &Measure
EOC	QUANT	0	Open Circuit (V)
SEQUENCER	TOGGLE	TRUE	Run as Sequence
PSTATMODEL	IQUANT	53	Pstat Model
PSTATSECTION	LABEL	IFC5000-01520	Pstat Section
PSTATSERIALNO	LABEL	01520	Pstat Serial Number
CTRLMODE	IQUANT	0	Control Mode
ELECTROMETER	IQUANT	1	RE=0 or CS=1
IESTAB	IQUANT	0	I/E Stability
CASPEED	IQUANT	4	Control Amp Speed
CONVENTION	IQUANT	1	Current Convention
ICHRANGE	IQUANT	2	Ich Range
ICHRANGEMODE	TOGGLE	T	Ich Auto Range
ICHOFFSETENABLE	TOGGLE	F	Ich Offset Enable
ICHOFFSET	QUANT	0	Ich Offset (V)
ICHFILTER	IQUANT	1	Ich Filter
VCHRANGE	IQUANT	2	Vch Range
VCHRANGEMODE	TOGGLE	T	Vch Auto Range
VCHOFFSETENABLE	TOGGLE	F	Vch Offset Enable
VCHOFFSET	QUANT	0	Vch Offset (V)
VCHFILTER	IQUANT	1	Vch Filter
IERANGELOWERLIMIT	IQUANT	9	I/E Range Lower Limit
IERANGEMODE	TOGGLE	F	I/E AutoRange
IERANGE	IQUANT	10	I/E Range
ACHSELECT	IQUANT	1	Ach Select
ACHRANGE	IQUANT	2	Ach Range
ACHOFFSETENABLE	TOGGLE	F	Ach Offset Enable
ACHOFFSET	QUANT	0	Ach Offset (V)
ACHFILTER	IQUANT	1	Ach Filter
CABLEID	IQUANT	14	Cable ID
DCCALDATE	LABEL	20-10-2016	DC Calibration Date
ACCALDATE	LABEL	12/3/2015	AC Calibration Date
FRAMEWORKVERSION	QUANT	7.01	Framework Version
INSTRUMENTVERSION	LABEL	4.00	Instrument Version
CURVE	TABLE	65
	Pt	T	Vf	Im	Vu	Pwr	Sig	Ach	Temp	IERange	Over
	#	s	V	A	V	W	V	V	deg C	#	bits
	0	0.013333	6.06802E-001	5.99634E-003	0.00000E+000	3.63859E-003	3.59960E-001	-1.09713E+000	3.57820E+000	10	...........
	1	0.026667	6.15293E-001	5.98919E-003	0.00000E+000	3.68511E-003	3.59960E-001	-1.08788E+000	3.57820E+000	10	...........
	2	0.04	6.23091E-001	5.99633E-003	0.00000E+000	3.73626E-003	3.59960E-001	-1.08744E+000	3.57820E+000	10	...........
	3	0.053333	6.30434E-001	5.99383E-003	0.00000E+000	3.77871E-003	3.59960E-001	-1.09691E+000	3.57820E+000	10	...........
	4	0.066667	6.37522E-001	5.99205E-003	0.00000E+000	3.82007E-003	3.59960E-001	-1.08775E+000	3.57820E+000	10	...........
	5	0.08	6.44421E-001	5.99444E-003	0.00000E+000	3.86294E-003	3.59960E-001	-1.08744E+000	3.57820E+000	10	...........
	6	0.093333	6.51223E-001	5.99298E-003	0.00000E+000	3.90276E-003	3.59960E-001	-1.09674E+000	3.57820E+000	10	...........
	7	0.106667	6.57855E-001	5.99506E-003	0.00000E+000	3.94388E-003	3.59960E-001	-1.08735E+000	3.57820E+000	10	...........
	8	0.12	6.64459E-001	5.99516E-003	0.00000E+000	3.98353E-003	3.59960E-001	-1.08706E+000	3.57820E+000	10	...........
	9	0.133333	6.70975E-001	5.99333E-003	0.00000E+000	4.02138E-003	3.59960E-001	-1.09651E+000	3.57820E+000	10	...........
	10	0.146667	6.77408E-001	5.99615E-003	0.00000E+000	4.06184E-003	3.59960E-001	-1.08756E+000	3.57820E+000	10	...........
	11	0.16	6.83788E-001	5.99239E-003	0.00000E+000	4.09753E-003	3.59960E-001	-1.08704E+000	3.57820E+000	10	...........
	12	0.173333	6.90142E-001	5.99160E-003	0.00000E+000	4.13506E-003	3.59960E-001	-1.09663E+000	3.57820E+000	10	...........
	13	0.186667	6.96509E-001	5.99180E-003	0.00000E+000	4.17334E-003	3.59960E-001	-1.08746E+000	3.57820E+000	10	...........
	14	0.2	7.02789E-001	5.99474E-003	0.00000E+000	4.21304E-003	3.59960E-001	-1.08721E+000	3.57820E+000	10	...........
	15	0.213333	7.09033E-001	5.99539E-003	0.00000E+000	4.25093E-003	3.59960E-001	-1.09660E+000	3.57820E+000	10	...........
	16	0.226667	7.15276E-001	5.99296E-003	0.00000E+000	4.28662E-003	3.59960E-001	-1.08733E+000	3.57820E+000	10	...........
	17	0.24	7.21524E-001	5.99689E-003	0.00000E+000	4.32690E-003	3.59960E-001	-1.08694E+000	3.57820E+000	10	...........
	18	0.253333	7.27721E-001	5.99416E-003	0.00000E+000	4.36207E-003	3.59960E-001	-1.09631E+000	3.57820E+000	10	...........
	19	0.266667	7.33859E-001	5.99524E-003	0.00000E+000	4.39966E-003	3.59960E-001	-1.08697E+000	3.57820E+000	10	...........
	20	0.28	7.40053E-001	5.99717E-003	0.00000E+000	4.43822E-003	3.59960E-001	-1.08677E+000	3.57820E+000	10	...........
	21	0.293333	7.46253E-001	5.99265E-003	0.00000E+000	4.47203E-003	3.59960E-001	-1.09641E+000	3.57820E+000	10	...........
	22	0.306667	7.52384E-001	5.99495E-003	0.00000E+000	4.51050E-003	3.59960E-001	-1.08703E+000	3.57820E+000	10	...........
	23	0.32	7.58533E-001	5.99548E-003	0.00000E+000	4.54777E-003	3.59960E-001	-1.08690E+000	3.57820E+000	10	...........
	24	0.333333	7.64686E-001	5.99184E-003	0.00000E+000	4.58188E-003	3.59960E-001	-1.09636E+000	3.57820E+000	10	...........
	25	0.346667	7.70851E-001	5.99162E-003	0.00000E+000	4.61865E-003	3.59960E-001	-1.08721E+000	3.57820E+000	10	...........
	26	0.36	7.76958E-001	5.99288E-003	0.00000E+000	4.65622E-003	3.59960E-001	-1.08698E+000	3.57820E+000	10	...........
	27	0.373333	7.83101E-001	5.99372E-003	0.00000E+000	4.69369E-003	3.59960E-001	-1.09645E+000	3.57820E+000	10	...........
	28	0.386667	7.89194E-001	5.99818E-003	0.00000E+000	4.73373E-003	3.59960E-001	-1.08693E+000	3.57820E+000	10	...........
	29	0.4	7.95313E-001	5.98817E-003	0.00000E+000	4.76247E-003	3.59960E-001	-1.08722E+000	3.57820E+000	10	...........
	30	0.413333	8.01383E-001	5.99238E-003	0.00000E+000	4.80219E-003	3.59960E-001	-1.09632E+000	3.57820E+000	10	...........
	31	0.426667	8.07490E-001	5.99529E-003	0.00000E+000	4.84114E-003	3.59960E-001	-1.08698E+000	3.57820E+000	10	...........
	32	0.44	8.13548E-001	5.99644E-003	0.00000E+000	4.87839E-003	3.59960E-001	-1.08672E+000	3.57820E+000	10	...........
	33	0.453333	8.19584E-001	5.99300E-003	0.00000E+000	4.91176E-003	3.59960E-001	-1.09613E+000	3.57820E+000	10	...........
	34	0.466667	8.25649E-001	5.99275E-003	0.00000E+000	4.94791E-003	3.59960E-001	-1.08675E+000	3.57820E+000	10	...........
	35	0.48	8.31652E-001	5.99177E-003	0.00000E+000	4.98306E-003	3.59960E-001	-1.08689E+000	3.57820E+000	10	...........
	36	0.493333	8.37716E-001	5.99565E-003	0.00000E+000	5.02265E-003	3.59960E-001	-1.09616E+000	3.57820E+000	10	...........
	37	0.506667	8.43755E-001	5.99120E-003	0.00000E+000	5.05511E-003	3.59960E-001	-1.08679E+000	3.57820E+000	10	...........
	38	0.52	8.49787E-001	5.99486E-003	0.00000E+000	5.09435E-003	3.59960E-001	-1.08666E+000	3.57820E+000	10	...........
	39	0.533333	8.55811E-001	5.99719E-003	0.00000E+000	5.13246E-003	3.59960E-001	-1.09625E+000	3.57820E+000	10	...........
	40	0.546667	8.61809E-001	5.99440E-003	0.00000E+000	5.16603E-003	3.59960E-001	-1.08696E+000	3.57820E+000	10	...........
	41	0.56	8.67813E-001	5.99298E-003	0.00000E+000	5.20078E-003	3.59960E-001	-1.08706E+000	3.57820E+000	10	...........
	42	0.573333	8.73796E-001	5.98959E-003	0.00000E+000	5.23368E-003	3.59960E-001	-1.09610E+000	3.57814E+000	10	...........
	43	0.586667	8.79726E-001	5.99770E-003	0.00000E+000	5.27633E-003	3.59960E-001	-1.08663E+000	3.57810E+000	10	...........
	44	0.6	8.85667E-001	5.99517E-003	0.00000E+000	5.30972E-003	3.59960E-001	-1.08680E+000	3.57810E+000	10	...........
	45	0.613333	8.91590E-001	5.99245E-003	0.00000E+000	5.34281E-003	3.59960E-001	-1.09612E+000	3.57810E+000	10	...........
	46	0.626667	8.97469E-001	5.98886E-003	0.00000E+000	5.37481E-003	3.59960E-001	-1.08677E+000	3.57810E+000	10	...........
	47	0.64	9.03362E-001	6.00155E-003	0.00000E+000	5.42157E-003	3.59960E-001	-1.08690E+000	3.57810E+000	10	...........
	48	0.653333	9.09254E-001	5.99247E-003	0.00000E+000	5.44868E-003	3.59960E-001	-1.09616E+000	3.57810E+000	10	...........
	49	0.666667	9.15113E-001	5.99495E-003	0.00000E+000	5.48605E-003	3.59960E-001	-1.08688E+000	3.57810E+000	10	...........
	50	0.68	9.20967E-001	5.98911E-003	0.00000E+000	5.51577E-003	3.59960E-001	-1.08709E+000	3.57810E+000	10	...........
	51	0.693333	9.26754E-001	5.99269E-003	0.00000E+000	5.55375E-003	3.59960E-001	-1.09626E+000	3.57810E+000	10	...........
	52	0.706667	9.32530E-001	5.99549E-003	0.00000E+000	5.59098E-003	3.59960E-001	-1.08670E+000	3.57810E+000	10	...........
	53	0.72	9.38284E-001	5.99583E-003	0.00000E+000	5.62579E-003	3.59960E-001	-1.08713E+000	3.57810E+000	10	...........
	54	0.733333	9.43996E-001	5.99204E-003	0.00000E+000	5.65646E-003	3.59960E-001	-1.09626E+000	3.57810E+000	10	...........
	55	0.746667	9.49715E-001	5.99641E-003	0.00000E+000	5.69488E-003	3.59960E-001	-1.08663E+000	3.57810E+000	10	...........
	56	0.76	9.55350E-001	5.99264E-003	0.00000E+000	5.72507E-003	3.59960E-001	-1.08697E+000	3.57810E+000	10	...........
	57	0.773333	9.60980E-001	5.99625E-003	0.00000E+000	5.76228E-003	3.59960E-001	-1.09589E+000	3.57810E+000	10	...........
	58	0.786667	9.66575E-001	5.99537E-003	0.00000E+000	5.79497E-003	3.59960E-001	-1.08635E+000	3.57810E+000	10	...........
	59	0.8	9.72164E-001	5.99844E-003	0.00000E+000	5.83147E-003	3.59960E-001	-1.08693E+000	3.57810E+000	10	...........
	60	0.813333	9.77706E-001	5.99545E-003	0.00000E+000	5.86179E-003	3.59960E-001	-1.09611E+000	3.57810E+000	10	...........
	61	0.826667	9.83186E-001	5.99215E-003	0.00000E+000	5.89140E-003	3.59960E-001	-1.08642E+000	3.57810E+000	10	...........
	62	0.84	9.88650E-001	5.99413E-003	0.00000E+000	5.92609E-003	3.59960E-001	-1.08702E+000	3.57810E+000	10	...........
	63	0.853333	9.94051E-001	5.99653E-003	0.00000E+000	5.96086E-003	3.59960E-001	-1.09598E+000	3.57810E+000	10	...........
	64	0.863333	9.98745E-001	5.99600E-003	0.00000E+000	5.98848E-003	3.59960E-001	-1.08246E+000	3.57810E+000	10	...........
STARTTIMEOFFSET	QUANT	379.8434	Start Time Offset (s)