Folder: Tesis/Data/CV_CRGO300517_1/PWRCCD_CRGO300517_1/CHARGE_DISCHARGE (part 137)

File: CHARGE_#276.DTA
EXPLAIN
TAG	PWR800_CHARGE
TITLE	LABEL	PWR Cyclic Charge Discharge (Cell) - Charge Step	Test &Identifier
DATE	LABEL	22-6-2017	Date
TIME	LABEL	15:46:57	Time
NOTES	NOTES	3	&Notes...
	supercap test cell
	0.6mg
	6M KOH
PSTAT	PSTAT	IFC5000-01520	Potentiostat
CAPACITY	QUANT	1.00000E-003	Capacity (A-hr)
CELLTYPE	SELECTOR	1	&Cell Type
WORKINGCONNECTION	SELECTOR	0	&Working Lead
MAXCHARGETIME	VARIABLEANDUNITS	1.00000E+002	s	1.00000E+002	second(s)	Max &Charge Time
CHARGECURRENT	QUANT	6.00000E-003	&Charge Current (A)
VOLTAGEFINISH	TWOPARAM	F	1.00000E-003	3.60000E+003	&Voltage Finish	 I (A) < 	Max Time(s)
SAMPLETIME	QUANT	1.00000E-002	Sa&mple Period (s)
CHARGESTOPAT1	MULTIPARAM	4	1.00000E+000	Charge Stop At &1	Voltage > Limit	V
CHARGESTOPAT2	MULTIPARAM	0	0.00000E+000	Charge Stop At &2	None	N/A
AESBHCSELECTOR	TOGGLE	F	Save Both Half Cells
IRCOMP	TOGGLE	F	IR &Measure
EOC	QUANT	0	Open Circuit (V)
SEQUENCER	TOGGLE	TRUE	Run as Sequence
PSTATMODEL	IQUANT	53	Pstat Model
PSTATSECTION	LABEL	IFC5000-01520	Pstat Section
PSTATSERIALNO	LABEL	01520	Pstat Serial Number
CTRLMODE	IQUANT	0	Control Mode
ELECTROMETER	IQUANT	1	RE=0 or CS=1
IESTAB	IQUANT	0	I/E Stability
CASPEED	IQUANT	4	Control Amp Speed
CONVENTION	IQUANT	1	Current Convention
ICHRANGE	IQUANT	2	Ich Range
ICHRANGEMODE	TOGGLE	T	Ich Auto Range
ICHOFFSETENABLE	TOGGLE	F	Ich Offset Enable
ICHOFFSET	QUANT	0	Ich Offset (V)
ICHFILTER	IQUANT	1	Ich Filter
VCHRANGE	IQUANT	2	Vch Range
VCHRANGEMODE	TOGGLE	T	Vch Auto Range
VCHOFFSETENABLE	TOGGLE	F	Vch Offset Enable
VCHOFFSET	QUANT	0	Vch Offset (V)
VCHFILTER	IQUANT	1	Vch Filter
IERANGELOWERLIMIT	IQUANT	9	I/E Range Lower Limit
IERANGEMODE	TOGGLE	F	I/E AutoRange
IERANGE	IQUANT	10	I/E Range
ACHSELECT	IQUANT	1	Ach Select
ACHRANGE	IQUANT	2	Ach Range
ACHOFFSETENABLE	TOGGLE	F	Ach Offset Enable
ACHOFFSET	QUANT	0	Ach Offset (V)
ACHFILTER	IQUANT	1	Ach Filter
CABLEID	IQUANT	14	Cable ID
DCCALDATE	LABEL	20-10-2016	DC Calibration Date
ACCALDATE	LABEL	12/3/2015	AC Calibration Date
FRAMEWORKVERSION	QUANT	7.01	Framework Version
INSTRUMENTVERSION	LABEL	4.00	Instrument Version
CURVE	TABLE	63
	Pt	T	Vf	Im	Vu	Pwr	Sig	Ach	Temp	IERange	Over
	#	s	V	A	V	W	V	V	deg C	#	bits
	0	0.013333	6.15075E-001	5.99144E-003	0.00000E+000	3.68519E-003	3.59960E-001	-1.10825E+000	3.57790E+000	10	...........
	1	0.026667	6.23624E-001	5.99402E-003	0.00000E+000	3.73801E-003	3.59960E-001	-1.10307E+000	3.57790E+000	10	...........
	2	0.04	6.31475E-001	5.99061E-003	0.00000E+000	3.78292E-003	3.59960E-001	-1.09916E+000	3.57790E+000	10	...........
	3	0.053333	6.38934E-001	5.99378E-003	0.00000E+000	3.82963E-003	3.59960E-001	-1.10838E+000	3.57790E+000	10	...........
	4	0.066667	6.46112E-001	5.99426E-003	0.00000E+000	3.87296E-003	3.59960E-001	-1.10336E+000	3.57790E+000	10	...........
	5	0.08	6.53102E-001	5.99147E-003	0.00000E+000	3.91304E-003	3.59960E-001	-1.09933E+000	3.57790E+000	10	...........
	6	0.093333	6.59935E-001	5.99202E-003	0.00000E+000	3.95434E-003	3.59960E-001	-1.10827E+000	3.57790E+000	10	...........
	7	0.106667	6.66714E-001	5.99704E-003	0.00000E+000	3.99831E-003	3.59960E-001	-1.10323E+000	3.57790E+000	10	...........
	8	0.12	6.73343E-001	5.99395E-003	0.00000E+000	4.03598E-003	3.59960E-001	-1.09920E+000	3.57790E+000	10	...........
	9	0.133333	6.79933E-001	5.99236E-003	0.00000E+000	4.07441E-003	3.59960E-001	-1.10848E+000	3.57790E+000	10	...........
	10	0.146667	6.86434E-001	5.99269E-003	0.00000E+000	4.11359E-003	3.59960E-001	-1.10333E+000	3.57790E+000	10	...........
	11	0.16	6.92933E-001	5.99451E-003	0.00000E+000	4.15379E-003	3.59960E-001	-1.09913E+000	3.57790E+000	10	...........
	12	0.173333	6.99368E-001	5.99625E-003	0.00000E+000	4.19359E-003	3.59960E-001	-1.10848E+000	3.57790E+000	10	...........
	13	0.186667	7.05773E-001	5.99806E-003	0.00000E+000	4.23327E-003	3.59960E-001	-1.10361E+000	3.57790E+000	10	...........
	14	0.2	7.12119E-001	5.99344E-003	0.00000E+000	4.26804E-003	3.59960E-001	-1.09938E+000	3.57790E+000	10	...........
	15	0.213333	7.18535E-001	5.99510E-003	0.00000E+000	4.30769E-003	3.59960E-001	-1.10859E+000	3.57790E+000	10	...........
	16	0.226667	7.24897E-001	5.99270E-003	0.00000E+000	4.34409E-003	3.59960E-001	-1.10376E+000	3.57790E+000	10	...........
	17	0.24	7.31185E-001	5.99209E-003	0.00000E+000	4.38132E-003	3.59960E-001	-1.09956E+000	3.57790E+000	10	...........
	18	0.253333	7.37472E-001	5.99202E-003	0.00000E+000	4.41895E-003	3.59960E-001	-1.10855E+000	3.57790E+000	10	...........
	19	0.266667	7.43754E-001	5.99641E-003	0.00000E+000	4.45986E-003	3.59960E-001	-1.10383E+000	3.57790E+000	10	...........
	20	0.28	7.50015E-001	5.99760E-003	0.00000E+000	4.49829E-003	3.59960E-001	-1.09957E+000	3.57790E+000	10	...........
	21	0.293333	7.56301E-001	5.99333E-003	0.00000E+000	4.53277E-003	3.59960E-001	-1.10839E+000	3.57790E+000	10	...........
	22	0.306667	7.62522E-001	5.99335E-003	0.00000E+000	4.57007E-003	3.59960E-001	-1.10356E+000	3.57790E+000	10	...........
	23	0.32	7.68789E-001	5.99819E-003	0.00000E+000	4.61134E-003	3.59960E-001	-1.09939E+000	3.57790E+000	10	...........
	24	0.333333	7.75002E-001	5.99446E-003	0.00000E+000	4.64572E-003	3.59960E-001	-1.10828E+000	3.57790E+000	10	...........
	25	0.346667	7.81239E-001	5.99248E-003	0.00000E+000	4.68156E-003	3.59960E-001	-1.10375E+000	3.57790E+000	10	...........
	26	0.36	7.87445E-001	5.99407E-003	0.00000E+000	4.72001E-003	3.59960E-001	-1.09922E+000	3.57790E+000	10	...........
	27	0.373333	7.93611E-001	5.99423E-003	0.00000E+000	4.75709E-003	3.59960E-001	-1.10834E+000	3.57790E+000	10	...........
	28	0.386667	7.99850E-001	5.99433E-003	0.00000E+000	4.79457E-003	3.59960E-001	-1.10374E+000	3.57790E+000	10	...........
	29	0.4	8.06012E-001	5.99312E-003	0.00000E+000	4.83053E-003	3.59960E-001	-1.09957E+000	3.57790E+000	10	...........
	30	0.413333	8.12171E-001	5.98957E-003	0.00000E+000	4.86455E-003	3.59960E-001	-1.10830E+000	3.57790E+000	10	...........
	31	0.426667	8.18356E-001	5.99515E-003	0.00000E+000	4.90616E-003	3.59960E-001	-1.10388E+000	3.57790E+000	10	...........
	32	0.44	8.24504E-001	5.99579E-003	0.00000E+000	4.94356E-003	3.59960E-001	-1.09948E+000	3.57790E+000	10	...........
	33	0.453333	8.30621E-001	5.99480E-003	0.00000E+000	4.97941E-003	3.59960E-001	-1.10816E+000	3.57790E+000	10	...........
	34	0.466667	8.36747E-001	5.99302E-003	0.00000E+000	5.01464E-003	3.59960E-001	-1.10409E+000	3.57790E+000	10	...........
	35	0.48	8.42865E-001	5.99515E-003	0.00000E+000	5.05310E-003	3.59960E-001	-1.09945E+000	3.57790E+000	10	...........
	36	0.493333	8.48992E-001	5.99329E-003	0.00000E+000	5.08826E-003	3.59960E-001	-1.10826E+000	3.57790E+000	10	...........
	37	0.506667	8.55117E-001	5.99070E-003	0.00000E+000	5.12275E-003	3.59960E-001	-1.10418E+000	3.57790E+000	10	...........
	38	0.52	8.61195E-001	5.99397E-003	0.00000E+000	5.16198E-003	3.59960E-001	-1.09956E+000	3.57790E+000	10	...........
	39	0.533333	8.67300E-001	5.99343E-003	0.00000E+000	5.19810E-003	3.59960E-001	-1.10824E+000	3.57790E+000	10	...........
	40	0.546667	8.73352E-001	5.99526E-003	0.00000E+000	5.23598E-003	3.59960E-001	-1.10445E+000	3.57790E+000	10	...........
	41	0.56	8.79399E-001	5.99247E-003	0.00000E+000	5.26977E-003	3.59960E-001	-1.09968E+000	3.57790E+000	10	...........
	42	0.573333	8.85435E-001	5.99574E-003	0.00000E+000	5.30884E-003	3.59960E-001	-1.10840E+000	3.57790E+000	10	...........
	43	0.586667	8.91381E-001	5.99357E-003	0.00000E+000	5.34256E-003	3.59960E-001	-1.10451E+000	3.57790E+000	10	...........
	44	0.6	8.97356E-001	5.99443E-003	0.00000E+000	5.37914E-003	3.59960E-001	-1.09980E+000	3.57790E+000	10	...........
	45	0.613333	9.03321E-001	5.99920E-003	0.00000E+000	5.41921E-003	3.59960E-001	-1.10834E+000	3.57790E+000	10	...........
	46	0.626667	9.09232E-001	5.99328E-003	0.00000E+000	5.44928E-003	3.59960E-001	-1.10420E+000	3.57790E+000	10	...........
	47	0.64	9.15143E-001	5.99160E-003	0.00000E+000	5.48317E-003	3.59960E-001	-1.09970E+000	3.57790E+000	10	...........
	48	0.653333	9.21067E-001	5.99337E-003	0.00000E+000	5.52030E-003	3.59960E-001	-1.10812E+000	3.57790E+000	10	...........
	49	0.666667	9.26928E-001	5.99203E-003	0.00000E+000	5.55418E-003	3.59960E-001	-1.10438E+000	3.57790E+000	10	...........
	50	0.68	9.32774E-001	5.99454E-003	0.00000E+000	5.59155E-003	3.59960E-001	-1.09982E+000	3.57790E+000	10	...........
	51	0.693333	9.38551E-001	5.99120E-003	0.00000E+000	5.62305E-003	3.59960E-001	-1.10791E+000	3.57790E+000	10	...........
	52	0.706667	9.44290E-001	5.98746E-003	0.00000E+000	5.65390E-003	3.59960E-001	-1.10456E+000	3.57790E+000	10	...........
	53	0.72	9.50089E-001	5.99526E-003	0.00000E+000	5.69603E-003	3.59960E-001	-1.09984E+000	3.57790E+000	10	...........
	54	0.733333	9.55759E-001	5.99336E-003	0.00000E+000	5.72821E-003	3.59960E-001	-1.10832E+000	3.57790E+000	10	...........
	55	0.746667	9.61431E-001	5.99256E-003	0.00000E+000	5.76143E-003	3.59960E-001	-1.10493E+000	3.57790E+000	10	...........
	56	0.76	9.67062E-001	5.99524E-003	0.00000E+000	5.79777E-003	3.59960E-001	-1.09989E+000	3.57790E+000	10	...........
	57	0.773333	9.72668E-001	5.99328E-003	0.00000E+000	5.82947E-003	3.59960E-001	-1.10801E+000	3.57790E+000	10	...........
	58	0.786667	9.78218E-001	5.99263E-003	0.00000E+000	5.86210E-003	3.59960E-001	-1.10500E+000	3.57790E+000	10	...........
	59	0.8	9.83744E-001	5.99083E-003	0.00000E+000	5.89344E-003	3.59960E-001	-1.09999E+000	3.57790E+000	10	...........
	60	0.813333	9.89192E-001	5.99462E-003	0.00000E+000	5.92983E-003	3.59960E-001	-1.10810E+000	3.57790E+000	10	...........
	61	0.826667	9.94626E-001	5.99745E-003	0.00000E+000	5.96522E-003	3.59960E-001	-1.10503E+000	3.57790E+000	10	...........
	62	0.835	9.99026E-001	5.99553E-003	0.00000E+000	5.98968E-003	3.59960E-001	-1.10041E+000	3.57790E+000	10	...........
STARTTIMEOFFSET	QUANT	501.4317	Start Time Offset (s)

File: CHARGE_#277.DTA
EXPLAIN
TAG	PWR800_CHARGE
TITLE	LABEL	PWR Cyclic Charge Discharge (Cell) - Charge Step	Test &Identifier
DATE	LABEL	22-6-2017	Date
TIME	LABEL	15:46:59	Time
NOTES	NOTES	3	&Notes...
	supercap test cell
	0.6mg
	6M KOH
PSTAT	PSTAT	IFC5000-01520	Potentiostat
CAPACITY	QUANT	1.00000E-003	Capacity (A-hr)
CELLTYPE	SELECTOR	1	&Cell Type
WORKINGCONNECTION	SELECTOR	0	&Working Lead
MAXCHARGETIME	VARIABLEANDUNITS	1.00000E+002	s	1.00000E+002	second(s)	Max &Charge Time
CHARGECURRENT	QUANT	6.00000E-003	&Charge Current (A)
VOLTAGEFINISH	TWOPARAM	F	1.00000E-003	3.60000E+003	&Voltage Finish	 I (A) < 	Max Time(s)
SAMPLETIME	QUANT	1.00000E-002	Sa&mple Period (s)
CHARGESTOPAT1	MULTIPARAM	4	1.00000E+000	Charge Stop At &1	Voltage > Limit	V
CHARGESTOPAT2	MULTIPARAM	0	0.00000E+000	Charge Stop At &2	None	N/A
AESBHCSELECTOR	TOGGLE	F	Save Both Half Cells
IRCOMP	TOGGLE	F	IR &Measure
EOC	QUANT	0	Open Circuit (V)
SEQUENCER	TOGGLE	TRUE	Run as Sequence
PSTATMODEL	IQUANT	53	Pstat Model
PSTATSECTION	LABEL	IFC5000-01520	Pstat Section
PSTATSERIALNO	LABEL	01520	Pstat Serial Number
CTRLMODE	IQUANT	0	Control Mode
ELECTROMETER	IQUANT	1	RE=0 or CS=1
IESTAB	IQUANT	0	I/E Stability
CASPEED	IQUANT	4	Control Amp Speed
CONVENTION	IQUANT	1	Current Convention
ICHRANGE	IQUANT	2	Ich Range
ICHRANGEMODE	TOGGLE	T	Ich Auto Range
ICHOFFSETENABLE	TOGGLE	F	Ich Offset Enable
ICHOFFSET	QUANT	0	Ich Offset (V)
ICHFILTER	IQUANT	1	Ich Filter
VCHRANGE	IQUANT	2	Vch Range
VCHRANGEMODE	TOGGLE	T	Vch Auto Range
VCHOFFSETENABLE	TOGGLE	F	Vch Offset Enable
VCHOFFSET	QUANT	0	Vch Offset (V)
VCHFILTER	IQUANT	1	Vch Filter
IERANGELOWERLIMIT	IQUANT	9	I/E Range Lower Limit
IERANGEMODE	TOGGLE	F	I/E AutoRange
IERANGE	IQUANT	10	I/E Range
ACHSELECT	IQUANT	1	Ach Select
ACHRANGE	IQUANT	2	Ach Range
ACHOFFSETENABLE	TOGGLE	F	Ach Offset Enable
ACHOFFSET	QUANT	0	Ach Offset (V)
ACHFILTER	IQUANT	1	Ach Filter
CABLEID	IQUANT	14	Cable ID
DCCALDATE	LABEL	20-10-2016	DC Calibration Date
ACCALDATE	LABEL	12/3/2015	AC Calibration Date
FRAMEWORKVERSION	QUANT	7.01	Framework Version
INSTRUMENTVERSION	LABEL	4.00	Instrument Version
CURVE	TABLE	63
	Pt	T	Vf	Im	Vu	Pwr	Sig	Ach	Temp	IERange	Over
	#	s	V	A	V	W	V	V	deg C	#	bits
	0	0.013333	6.13996E-001	5.99705E-003	0.00000E+000	3.68216E-003	3.59960E-001	-1.12699E+000	3.57860E+000	10	...........
	1	0.026667	6.22627E-001	5.99284E-003	0.00000E+000	3.73131E-003	3.59960E-001	-1.11735E+000	3.57860E+000	10	...........
	2	0.04	6.30457E-001	5.99153E-003	0.00000E+000	3.77740E-003	3.59960E-001	-1.11710E+000	3.57860E+000	10	...........
	3	0.053333	6.37919E-001	5.99563E-003	0.00000E+000	3.82472E-003	3.59960E-001	-1.12667E+000	3.57860E+000	10	...........
	4	0.066667	6.45153E-001	5.99668E-003	0.00000E+000	3.86878E-003	3.59960E-001	-1.11689E+000	3.57860E+000	10	...........
	5	0.08	6.52122E-001	5.99445E-003	0.00000E+000	3.90911E-003	3.59960E-001	-1.11624E+000	3.57860E+000	10	...........
	6	0.093333	6.59020E-001	5.99710E-003	0.00000E+000	3.95221E-003	3.59960E-001	-1.12548E+000	3.57860E+000	10	...........
	7	0.106667	6.65755E-001	5.99050E-003	0.00000E+000	3.98820E-003	3.59960E-001	-1.11588E+000	3.57860E+000	10	...........
	8	0.12	6.72489E-001	5.99414E-003	0.00000E+000	4.03099E-003	3.59960E-001	-1.11538E+000	3.57860E+000	10	...........
	9	0.133333	6.79072E-001	5.99510E-003	0.00000E+000	4.07110E-003	3.59960E-001	-1.12494E+000	3.57860E+000	10	...........
	10	0.146667	6.85590E-001	5.99199E-003	0.00000E+000	4.10805E-003	3.59960E-001	-1.11555E+000	3.57860E+000	10	...........
	11	0.16	6.92116E-001	5.99416E-003	0.00000E+000	4.14865E-003	3.59960E-001	-1.11494E+000	3.57860E+000	10	...........
	12	0.173333	6.98599E-001	5.99410E-003	0.00000E+000	4.18747E-003	3.59960E-001	-1.12436E+000	3.57860E+000	10	...........
	13	0.186667	7.04986E-001	5.98799E-003	0.00000E+000	4.22145E-003	3.59960E-001	-1.11483E+000	3.57860E+000	10	...........
	14	0.2	7.11352E-001	5.99253E-003	0.00000E+000	4.26280E-003	3.59960E-001	-1.11455E+000	3.57860E+000	10	...........
	15	0.213333	7.17796E-001	5.99251E-003	0.00000E+000	4.30140E-003	3.59960E-001	-1.12385E+000	3.57860E+000	10	...........
	16	0.226667	7.24163E-001	5.99304E-003	0.00000E+000	4.33994E-003	3.59960E-001	-1.11448E+000	3.57860E+000	10	...........
	17	0.24	7.30443E-001	5.99153E-003	0.00000E+000	4.37647E-003	3.59960E-001	-1.11372E+000	3.57860E+000	10	...........
	18	0.253333	7.36763E-001	5.99252E-003	0.00000E+000	4.41507E-003	3.59960E-001	-1.12343E+000	3.57860E+000	10	...........
	19	0.266667	7.43128E-001	5.99105E-003	0.00000E+000	4.45211E-003	3.59960E-001	-1.11369E+000	3.57860E+000	10	...........
	20	0.28	7.49391E-001	5.99796E-003	0.00000E+000	4.49482E-003	3.59960E-001	-1.11318E+000	3.57860E+000	10	...........
	21	0.293333	7.55674E-001	5.99593E-003	0.00000E+000	4.53097E-003	3.59960E-001	-1.12298E+000	3.57860E+000	10	...........
	22	0.306667	7.61926E-001	5.99659E-003	0.00000E+000	4.56895E-003	3.59960E-001	-1.11355E+000	3.57860E+000	10	...........
	23	0.32	7.68139E-001	5.99020E-003	0.00000E+000	4.60131E-003	3.59960E-001	-1.11274E+000	3.57860E+000	10	...........
	24	0.333333	7.74371E-001	5.99552E-003	0.00000E+000	4.64276E-003	3.59960E-001	-1.12258E+000	3.57860E+000	10	...........
	25	0.346667	7.80610E-001	5.99783E-003	0.00000E+000	4.68197E-003	3.59960E-001	-1.11324E+000	3.57860E+000	10	...........
	26	0.36	7.86853E-001	5.99816E-003	0.00000E+000	4.71967E-003	3.59960E-001	-1.11238E+000	3.57860E+000	10	...........
	27	0.373333	7.93066E-001	5.99188E-003	0.00000E+000	4.75196E-003	3.59960E-001	-1.12213E+000	3.57860E+000	10	...........
	28	0.386667	7.99270E-001	5.99583E-003	0.00000E+000	4.79228E-003	3.59960E-001	-1.11286E+000	3.57860E+000	10	...........
	29	0.4	8.05421E-001	5.99221E-003	0.00000E+000	4.82625E-003	3.59960E-001	-1.11182E+000	3.57860E+000	10	...........
	30	0.413333	8.11579E-001	5.99312E-003	0.00000E+000	4.86390E-003	3.59960E-001	-1.12140E+000	3.57770E+000	10	...........
	31	0.426667	8.17784E-001	5.99768E-003	0.00000E+000	4.90481E-003	3.59960E-001	-1.11217E+000	3.57740E+000	10	...........
	32	0.44	8.23964E-001	5.99032E-003	0.00000E+000	4.93581E-003	3.59960E-001	-1.11101E+000	3.57740E+000	10	...........
	33	0.453333	8.30127E-001	5.99256E-003	0.00000E+000	4.97459E-003	3.59960E-001	-1.12095E+000	3.57740E+000	10	...........
	34	0.466667	8.36215E-001	5.99871E-003	0.00000E+000	5.01621E-003	3.59960E-001	-1.11185E+000	3.57740E+000	10	...........
	35	0.48	8.42347E-001	5.99818E-003	0.00000E+000	5.05255E-003	3.59960E-001	-1.11071E+000	3.57740E+000	10	...........
	36	0.493333	8.48489E-001	5.99187E-003	0.00000E+000	5.08404E-003	3.59960E-001	-1.12082E+000	3.57740E+000	10	...........
	37	0.506667	8.54564E-001	5.99081E-003	0.00000E+000	5.11953E-003	3.59960E-001	-1.11139E+000	3.57740E+000	10	...........
	38	0.52	8.60652E-001	5.98803E-003	0.00000E+000	5.15362E-003	3.59960E-001	-1.11032E+000	3.57740E+000	10	...........
	39	0.533333	8.66745E-001	5.99592E-003	0.00000E+000	5.19693E-003	3.59960E-001	-1.12030E+000	3.57740E+000	10	...........
	40	0.546667	8.72829E-001	5.99653E-003	0.00000E+000	5.23395E-003	3.59960E-001	-1.11119E+000	3.57740E+000	10	...........
	41	0.56	8.78832E-001	5.99284E-003	0.00000E+000	5.26670E-003	3.59960E-001	-1.11000E+000	3.57740E+000	10	...........
	42	0.573333	8.84899E-001	5.99195E-003	0.00000E+000	5.30227E-003	3.59960E-001	-1.12003E+000	3.57740E+000	10	...........
	43	0.586667	8.90890E-001	5.99357E-003	0.00000E+000	5.33961E-003	3.59960E-001	-1.11098E+000	3.57740E+000	10	...........
	44	0.6	8.96847E-001	5.99171E-003	0.00000E+000	5.37364E-003	3.59960E-001	-1.10972E+000	3.57740E+000	10	...........
	45	0.613333	9.02803E-001	5.99246E-003	0.00000E+000	5.41001E-003	3.59960E-001	-1.11975E+000	3.57740E+000	10	...........
	46	0.626667	9.08755E-001	5.99333E-003	0.00000E+000	5.44647E-003	3.59960E-001	-1.11091E+000	3.57740E+000	10	...........
	47	0.64	9.14659E-001	5.99307E-003	0.00000E+000	5.48162E-003	3.59960E-001	-1.10948E+000	3.57740E+000	10	...........
	48	0.653333	9.20581E-001	5.99203E-003	0.00000E+000	5.51615E-003	3.59960E-001	-1.11953E+000	3.57740E+000	10	...........
	49	0.666667	9.26483E-001	5.99714E-003	0.00000E+000	5.55625E-003	3.59960E-001	-1.11059E+000	3.57740E+000	10	...........
	50	0.68	9.32300E-001	5.99422E-003	0.00000E+000	5.58841E-003	3.59960E-001	-1.10936E+000	3.57740E+000	10	...........
	51	0.693333	9.38116E-001	5.99514E-003	0.00000E+000	5.62413E-003	3.59960E-001	-1.11908E+000	3.57740E+000	10	...........
	52	0.706667	9.43912E-001	5.99227E-003	0.00000E+000	5.65617E-003	3.59960E-001	-1.11052E+000	3.57740E+000	10	...........
	53	0.72	9.49679E-001	5.99619E-003	0.00000E+000	5.69446E-003	3.59960E-001	-1.10864E+000	3.57740E+000	10	...........
	54	0.733333	9.55354E-001	5.99004E-003	0.00000E+000	5.72260E-003	3.59960E-001	-1.11857E+000	3.57740E+000	10	...........
	55	0.746667	9.61031E-001	5.99820E-003	0.00000E+000	5.76446E-003	3.59960E-001	-1.11009E+000	3.57740E+000	10	...........
	56	0.76	9.66634E-001	5.99429E-003	0.00000E+000	5.79429E-003	3.59960E-001	-1.10832E+000	3.57740E+000	10	...........
	57	0.773333	9.72235E-001	5.99071E-003	0.00000E+000	5.82438E-003	3.59960E-001	-1.11807E+000	3.57740E+000	10	...........
	58	0.786667	9.77853E-001	5.99604E-003	0.00000E+000	5.86325E-003	3.59960E-001	-1.10944E+000	3.57740E+000	10	...........
	59	0.8	9.83338E-001	5.99351E-003	0.00000E+000	5.89364E-003	3.59960E-001	-1.10808E+000	3.57740E+000	10	...........
	60	0.813333	9.88844E-001	5.99258E-003	0.00000E+000	5.92573E-003	3.59960E-001	-1.11825E+000	3.57740E+000	10	...........
	61	0.826667	9.94262E-001	5.99799E-003	0.00000E+000	5.96358E-003	3.59960E-001	-1.10952E+000	3.57740E+000	10	...........
	62	0.835	9.98673E-001	5.99364E-003	0.00000E+000	5.98569E-003	3.59960E-001	-1.11278E+000	3.57740E+000	10	...........
STARTTIMEOFFSET	QUANT	503.0934	Start Time Offset (s)