Folder: Tesis/Data/CV_CRGO300517_1/PWRCCD_CRGO300517_1/CHARGE_DISCHARGE (part 139)

File: CHARGE_#280.DTA
EXPLAIN
TAG	PWR800_CHARGE
TITLE	LABEL	PWR Cyclic Charge Discharge (Cell) - Charge Step	Test &Identifier
DATE	LABEL	22-6-2017	Date
TIME	LABEL	15:47:07	Time
NOTES	NOTES	3	&Notes...
	supercap test cell
	0.6mg
	6M KOH
PSTAT	PSTAT	IFC5000-01520	Potentiostat
CAPACITY	QUANT	1.00000E-003	Capacity (A-hr)
CELLTYPE	SELECTOR	1	&Cell Type
WORKINGCONNECTION	SELECTOR	0	&Working Lead
MAXCHARGETIME	VARIABLEANDUNITS	1.00000E+002	s	1.00000E+002	second(s)	Max &Charge Time
CHARGECURRENT	QUANT	6.00000E-003	&Charge Current (A)
VOLTAGEFINISH	TWOPARAM	F	1.00000E-003	3.60000E+003	&Voltage Finish	 I (A) < 	Max Time(s)
SAMPLETIME	QUANT	1.00000E-002	Sa&mple Period (s)
CHARGESTOPAT1	MULTIPARAM	4	1.00000E+000	Charge Stop At &1	Voltage > Limit	V
CHARGESTOPAT2	MULTIPARAM	0	0.00000E+000	Charge Stop At &2	None	N/A
AESBHCSELECTOR	TOGGLE	F	Save Both Half Cells
IRCOMP	TOGGLE	F	IR &Measure
EOC	QUANT	0	Open Circuit (V)
SEQUENCER	TOGGLE	TRUE	Run as Sequence
PSTATMODEL	IQUANT	53	Pstat Model
PSTATSECTION	LABEL	IFC5000-01520	Pstat Section
PSTATSERIALNO	LABEL	01520	Pstat Serial Number
CTRLMODE	IQUANT	0	Control Mode
ELECTROMETER	IQUANT	1	RE=0 or CS=1
IESTAB	IQUANT	0	I/E Stability
CASPEED	IQUANT	4	Control Amp Speed
CONVENTION	IQUANT	1	Current Convention
ICHRANGE	IQUANT	2	Ich Range
ICHRANGEMODE	TOGGLE	T	Ich Auto Range
ICHOFFSETENABLE	TOGGLE	F	Ich Offset Enable
ICHOFFSET	QUANT	0	Ich Offset (V)
ICHFILTER	IQUANT	1	Ich Filter
VCHRANGE	IQUANT	2	Vch Range
VCHRANGEMODE	TOGGLE	T	Vch Auto Range
VCHOFFSETENABLE	TOGGLE	F	Vch Offset Enable
VCHOFFSET	QUANT	0	Vch Offset (V)
VCHFILTER	IQUANT	1	Vch Filter
IERANGELOWERLIMIT	IQUANT	9	I/E Range Lower Limit
IERANGEMODE	TOGGLE	F	I/E AutoRange
IERANGE	IQUANT	10	I/E Range
ACHSELECT	IQUANT	1	Ach Select
ACHRANGE	IQUANT	2	Ach Range
ACHOFFSETENABLE	TOGGLE	F	Ach Offset Enable
ACHOFFSET	QUANT	0	Ach Offset (V)
ACHFILTER	IQUANT	1	Ach Filter
CABLEID	IQUANT	14	Cable ID
DCCALDATE	LABEL	20-10-2016	DC Calibration Date
ACCALDATE	LABEL	12/3/2015	AC Calibration Date
FRAMEWORKVERSION	QUANT	7.01	Framework Version
INSTRUMENTVERSION	LABEL	4.00	Instrument Version
CURVE	TABLE	63
	Pt	T	Vf	Im	Vu	Pwr	Sig	Ach	Temp	IERange	Over
	#	s	V	A	V	W	V	V	deg C	#	bits
	0	0.013333	6.14538E-001	5.98858E-003	0.00000E+000	3.68021E-003	3.59960E-001	-1.10374E+000	3.57700E+000	10	...........
	1	0.026667	6.23170E-001	5.99188E-003	0.00000E+000	3.73396E-003	3.59960E-001	-1.11284E+000	3.57700E+000	10	...........
	2	0.04	6.31003E-001	5.99311E-003	0.00000E+000	3.78167E-003	3.59960E-001	-1.10791E+000	3.57700E+000	10	...........
	3	0.053333	6.38504E-001	5.99645E-003	0.00000E+000	3.82876E-003	3.59960E-001	-1.10393E+000	3.57796E+000	10	...........
	4	0.066667	6.45703E-001	5.99026E-003	0.00000E+000	3.86793E-003	3.59960E-001	-1.11273E+000	3.57810E+000	10	...........
	5	0.08	6.52686E-001	5.99369E-003	0.00000E+000	3.91199E-003	3.59960E-001	-1.10774E+000	3.57810E+000	10	...........
	6	0.093333	6.59562E-001	5.99503E-003	0.00000E+000	3.95410E-003	3.59960E-001	-1.10366E+000	3.57810E+000	10	...........
	7	0.106667	6.66344E-001	5.99415E-003	0.00000E+000	3.99417E-003	3.59960E-001	-1.11236E+000	3.57810E+000	10	...........
	8	0.12	6.73081E-001	5.99670E-003	0.00000E+000	4.03626E-003	3.59960E-001	-1.10775E+000	3.57810E+000	10	...........
	9	0.133333	6.79674E-001	5.99410E-003	0.00000E+000	4.07404E-003	3.59960E-001	-1.10343E+000	3.57810E+000	10	...........
	10	0.146667	6.86217E-001	5.99507E-003	0.00000E+000	4.11392E-003	3.59960E-001	-1.11242E+000	3.57810E+000	10	...........
	11	0.16	6.92732E-001	5.98965E-003	0.00000E+000	4.14922E-003	3.59960E-001	-1.10765E+000	3.57810E+000	10	...........
	12	0.173333	6.99202E-001	5.99600E-003	0.00000E+000	4.19241E-003	3.59960E-001	-1.10342E+000	3.57810E+000	10	...........
	13	0.186667	7.05606E-001	5.99264E-003	0.00000E+000	4.22845E-003	3.59960E-001	-1.11234E+000	3.57810E+000	10	...........
	14	0.2	7.12003E-001	5.99287E-003	0.00000E+000	4.26694E-003	3.59960E-001	-1.10764E+000	3.57810E+000	10	...........
	15	0.213333	7.18445E-001	5.99623E-003	0.00000E+000	4.30796E-003	3.59960E-001	-1.10329E+000	3.57810E+000	10	...........
	16	0.226667	7.24802E-001	5.99592E-003	0.00000E+000	4.34586E-003	3.59960E-001	-1.11213E+000	3.57810E+000	10	...........
	17	0.24	7.31153E-001	5.99249E-003	0.00000E+000	4.38143E-003	3.59960E-001	-1.10763E+000	3.57810E+000	10	...........
	18	0.253333	7.37479E-001	5.99492E-003	0.00000E+000	4.42113E-003	3.59960E-001	-1.10349E+000	3.57810E+000	10	...........
	19	0.266667	7.43796E-001	5.99535E-003	0.00000E+000	4.45931E-003	3.59960E-001	-1.11214E+000	3.57810E+000	10	...........
	20	0.28	7.50054E-001	5.99292E-003	0.00000E+000	4.49501E-003	3.59960E-001	-1.10751E+000	3.57810E+000	10	...........
	21	0.293333	7.56310E-001	5.99668E-003	0.00000E+000	4.53535E-003	3.59960E-001	-1.10338E+000	3.57810E+000	10	...........
	22	0.306667	7.62549E-001	5.99415E-003	0.00000E+000	4.57083E-003	3.59960E-001	-1.11216E+000	3.57810E+000	10	...........
	23	0.32	7.68839E-001	5.99332E-003	0.00000E+000	4.60790E-003	3.59960E-001	-1.10789E+000	3.57810E+000	10	...........
	24	0.333333	7.75068E-001	5.99188E-003	0.00000E+000	4.64412E-003	3.59960E-001	-1.10360E+000	3.57810E+000	10	...........
	25	0.346667	7.81297E-001	5.99243E-003	0.00000E+000	4.68186E-003	3.59960E-001	-1.11201E+000	3.57810E+000	10	...........
	26	0.36	7.87528E-001	5.99544E-003	0.00000E+000	4.72158E-003	3.59960E-001	-1.10772E+000	3.57810E+000	10	...........
	27	0.373333	7.93760E-001	5.99350E-003	0.00000E+000	4.75740E-003	3.59960E-001	-1.10339E+000	3.57810E+000	10	...........
	28	0.386667	7.99983E-001	5.99590E-003	0.00000E+000	4.79661E-003	3.59960E-001	-1.11153E+000	3.57810E+000	10	...........
	29	0.4	8.06151E-001	5.99402E-003	0.00000E+000	4.83209E-003	3.59960E-001	-1.10754E+000	3.57810E+000	10	...........
	30	0.413333	8.12325E-001	5.99395E-003	0.00000E+000	4.86903E-003	3.59960E-001	-1.10289E+000	3.57810E+000	10	...........
	31	0.426667	8.18577E-001	5.99599E-003	0.00000E+000	4.90818E-003	3.59960E-001	-1.11098E+000	3.57810E+000	10	...........
	32	0.44	8.24700E-001	5.99060E-003	0.00000E+000	4.94045E-003	3.59960E-001	-1.10705E+000	3.57810E+000	10	...........
	33	0.453333	8.30876E-001	5.99621E-003	0.00000E+000	4.98211E-003	3.59960E-001	-1.10278E+000	3.57810E+000	10	...........
	34	0.466667	8.37012E-001	5.99222E-003	0.00000E+000	5.01556E-003	3.59960E-001	-1.11071E+000	3.57810E+000	10	...........
	35	0.48	8.43127E-001	5.99422E-003	0.00000E+000	5.05389E-003	3.59960E-001	-1.10706E+000	3.57810E+000	10	...........
	36	0.493333	8.49270E-001	5.99763E-003	0.00000E+000	5.09360E-003	3.59960E-001	-1.10268E+000	3.57810E+000	10	...........
	37	0.506667	8.55340E-001	5.99387E-003	0.00000E+000	5.12680E-003	3.59960E-001	-1.11071E+000	3.57810E+000	10	...........
	38	0.52	8.61422E-001	5.99239E-003	0.00000E+000	5.16198E-003	3.59960E-001	-1.10714E+000	3.57810E+000	10	...........
	39	0.533333	8.67537E-001	5.99322E-003	0.00000E+000	5.19934E-003	3.59960E-001	-1.10239E+000	3.57810E+000	10	...........
	40	0.546667	8.73602E-001	5.99092E-003	0.00000E+000	5.23368E-003	3.59960E-001	-1.11048E+000	3.57810E+000	10	...........
	41	0.56	8.79612E-001	5.99824E-003	0.00000E+000	5.27612E-003	3.59960E-001	-1.10699E+000	3.57810E+000	10	...........
	42	0.573333	8.85639E-001	5.99421E-003	0.00000E+000	5.30871E-003	3.59960E-001	-1.10239E+000	3.57810E+000	10	...........
	43	0.586667	8.91669E-001	5.99913E-003	0.00000E+000	5.34924E-003	3.59960E-001	-1.11043E+000	3.57810E+000	10	...........
	44	0.6	8.97651E-001	5.99311E-003	0.00000E+000	5.37973E-003	3.59960E-001	-1.10701E+000	3.57810E+000	10	...........
	45	0.613333	9.03638E-001	5.99623E-003	0.00000E+000	5.41843E-003	3.59960E-001	-1.10236E+000	3.57810E+000	10	...........
	46	0.626667	9.09608E-001	5.99664E-003	0.00000E+000	5.45459E-003	3.59960E-001	-1.11025E+000	3.57810E+000	10	...........
	47	0.64	9.15528E-001	5.99514E-003	0.00000E+000	5.48871E-003	3.59960E-001	-1.10725E+000	3.57810E+000	10	...........
	48	0.653333	9.21437E-001	5.99058E-003	0.00000E+000	5.51994E-003	3.59960E-001	-1.10249E+000	3.57810E+000	10	...........
	49	0.666667	9.27328E-001	5.99284E-003	0.00000E+000	5.55733E-003	3.59960E-001	-1.11050E+000	3.57810E+000	10	...........
	50	0.68	9.33139E-001	5.99420E-003	0.00000E+000	5.59342E-003	3.59960E-001	-1.10725E+000	3.57810E+000	10	...........
	51	0.693333	9.38918E-001	5.99642E-003	0.00000E+000	5.63014E-003	3.59960E-001	-1.10257E+000	3.57810E+000	10	...........
	52	0.706667	9.44722E-001	5.99471E-003	0.00000E+000	5.66334E-003	3.59960E-001	-1.11054E+000	3.57810E+000	10	...........
	53	0.72	9.50547E-001	5.99903E-003	0.00000E+000	5.70236E-003	3.59960E-001	-1.10743E+000	3.57810E+000	10	...........
	54	0.733333	9.56183E-001	5.99155E-003	0.00000E+000	5.72902E-003	3.59960E-001	-1.10252E+000	3.57810E+000	10	...........
	55	0.746667	9.61842E-001	5.99191E-003	0.00000E+000	5.76328E-003	3.59960E-001	-1.10999E+000	3.57810E+000	10	...........
	56	0.76	9.67427E-001	5.99045E-003	0.00000E+000	5.79533E-003	3.59960E-001	-1.10701E+000	3.57810E+000	10	...........
	57	0.773333	9.73090E-001	5.99361E-003	0.00000E+000	5.83233E-003	3.59960E-001	-1.10238E+000	3.57810E+000	10	...........
	58	0.786667	9.78657E-001	5.99389E-003	0.00000E+000	5.86596E-003	3.59960E-001	-1.11005E+000	3.57810E+000	10	...........
	59	0.8	9.84151E-001	5.99558E-003	0.00000E+000	5.90055E-003	3.59960E-001	-1.10733E+000	3.57810E+000	10	...........
	60	0.813333	9.89628E-001	5.99411E-003	0.00000E+000	5.93194E-003	3.59960E-001	-1.10223E+000	3.57810E+000	10	...........
	61	0.826667	9.95076E-001	5.99654E-003	0.00000E+000	5.96702E-003	3.59960E-001	-1.10996E+000	3.57810E+000	10	...........
	62	0.833333	9.99139E-001	5.99705E-003	0.00000E+000	5.99188E-003	3.59960E-001	-1.09983E+000	3.57810E+000	10	...........
STARTTIMEOFFSET	QUANT	508.075	Start Time Offset (s)

File: CHARGE_#281.DTA
EXPLAIN
TAG	PWR800_CHARGE
TITLE	LABEL	PWR Cyclic Charge Discharge (Cell) - Charge Step	Test &Identifier
DATE	LABEL	22-6-2017	Date
TIME	LABEL	15:47:09	Time
NOTES	NOTES	3	&Notes...
	supercap test cell
	0.6mg
	6M KOH
PSTAT	PSTAT	IFC5000-01520	Potentiostat
CAPACITY	QUANT	1.00000E-003	Capacity (A-hr)
CELLTYPE	SELECTOR	1	&Cell Type
WORKINGCONNECTION	SELECTOR	0	&Working Lead
MAXCHARGETIME	VARIABLEANDUNITS	1.00000E+002	s	1.00000E+002	second(s)	Max &Charge Time
CHARGECURRENT	QUANT	6.00000E-003	&Charge Current (A)
VOLTAGEFINISH	TWOPARAM	F	1.00000E-003	3.60000E+003	&Voltage Finish	 I (A) < 	Max Time(s)
SAMPLETIME	QUANT	1.00000E-002	Sa&mple Period (s)
CHARGESTOPAT1	MULTIPARAM	4	1.00000E+000	Charge Stop At &1	Voltage > Limit	V
CHARGESTOPAT2	MULTIPARAM	0	0.00000E+000	Charge Stop At &2	None	N/A
AESBHCSELECTOR	TOGGLE	F	Save Both Half Cells
IRCOMP	TOGGLE	F	IR &Measure
EOC	QUANT	0	Open Circuit (V)
SEQUENCER	TOGGLE	TRUE	Run as Sequence
PSTATMODEL	IQUANT	53	Pstat Model
PSTATSECTION	LABEL	IFC5000-01520	Pstat Section
PSTATSERIALNO	LABEL	01520	Pstat Serial Number
CTRLMODE	IQUANT	0	Control Mode
ELECTROMETER	IQUANT	1	RE=0 or CS=1
IESTAB	IQUANT	0	I/E Stability
CASPEED	IQUANT	4	Control Amp Speed
CONVENTION	IQUANT	1	Current Convention
ICHRANGE	IQUANT	2	Ich Range
ICHRANGEMODE	TOGGLE	T	Ich Auto Range
ICHOFFSETENABLE	TOGGLE	F	Ich Offset Enable
ICHOFFSET	QUANT	0	Ich Offset (V)
ICHFILTER	IQUANT	1	Ich Filter
VCHRANGE	IQUANT	2	Vch Range
VCHRANGEMODE	TOGGLE	T	Vch Auto Range
VCHOFFSETENABLE	TOGGLE	F	Vch Offset Enable
VCHOFFSET	QUANT	0	Vch Offset (V)
VCHFILTER	IQUANT	1	Vch Filter
IERANGELOWERLIMIT	IQUANT	9	I/E Range Lower Limit
IERANGEMODE	TOGGLE	F	I/E AutoRange
IERANGE	IQUANT	10	I/E Range
ACHSELECT	IQUANT	1	Ach Select
ACHRANGE	IQUANT	2	Ach Range
ACHOFFSETENABLE	TOGGLE	F	Ach Offset Enable
ACHOFFSET	QUANT	0	Ach Offset (V)
ACHFILTER	IQUANT	1	Ach Filter
CABLEID	IQUANT	14	Cable ID
DCCALDATE	LABEL	20-10-2016	DC Calibration Date
ACCALDATE	LABEL	12/3/2015	AC Calibration Date
FRAMEWORKVERSION	QUANT	7.01	Framework Version
INSTRUMENTVERSION	LABEL	4.00	Instrument Version
CURVE	TABLE	63
	Pt	T	Vf	Im	Vu	Pwr	Sig	Ach	Temp	IERange	Over
	#	s	V	A	V	W	V	V	deg C	#	bits
	0	0.013333	6.14038E-001	5.99645E-003	0.00000E+000	3.68205E-003	3.59960E-001	-1.11242E+000	3.57810E+000	10	...........
	1	0.026667	6.22711E-001	5.99353E-003	0.00000E+000	3.73224E-003	3.59960E-001	-1.10338E+000	3.57810E+000	10	...........
	2	0.04	6.30570E-001	5.99179E-003	0.00000E+000	3.77824E-003	3.59960E-001	-1.10532E+000	3.57810E+000	10	...........
	3	0.053333	6.38038E-001	5.99251E-003	0.00000E+000	3.82345E-003	3.59960E-001	-1.11253E+000	3.57810E+000	10	...........
	4	0.066667	6.45284E-001	5.99570E-003	0.00000E+000	3.86893E-003	3.59960E-001	-1.10358E+000	3.57810E+000	10	...........
	5	0.08	6.52333E-001	5.99343E-003	0.00000E+000	3.90971E-003	3.59960E-001	-1.10556E+000	3.57810E+000	10	...........
	6	0.093333	6.59234E-001	5.99584E-003	0.00000E+000	3.95266E-003	3.59960E-001	-1.11261E+000	3.57810E+000	10	...........
	7	0.106667	6.66033E-001	5.99875E-003	0.00000E+000	3.99536E-003	3.59960E-001	-1.10364E+000	3.57810E+000	10	...........
	8	0.12	6.72698E-001	5.99722E-003	0.00000E+000	4.03432E-003	3.59960E-001	-1.10553E+000	3.57810E+000	10	...........
	9	0.133333	6.79300E-001	5.99133E-003	0.00000E+000	4.06991E-003	3.59960E-001	-1.11280E+000	3.57810E+000	10	...........
	10	0.146667	6.85832E-001	5.99204E-003	0.00000E+000	4.10953E-003	3.59960E-001	-1.10383E+000	3.57810E+000	10	...........
	11	0.16	6.92341E-001	5.99522E-003	0.00000E+000	4.15074E-003	3.59960E-001	-1.10582E+000	3.57810E+000	10	...........
	12	0.173333	6.98830E-001	5.99947E-003	0.00000E+000	4.19261E-003	3.59960E-001	-1.11299E+000	3.57810E+000	10	...........
	13	0.186667	7.05259E-001	5.99676E-003	0.00000E+000	4.22927E-003	3.59960E-001	-1.10384E+000	3.57810E+000	10	...........
	14	0.2	7.11652E-001	5.99523E-003	0.00000E+000	4.26652E-003	3.59960E-001	-1.10569E+000	3.57810E+000	10	...........
	15	0.213333	7.18054E-001	5.99478E-003	0.00000E+000	4.30457E-003	3.59960E-001	-1.11293E+000	3.57810E+000	10	...........
	16	0.226667	7.24392E-001	5.98658E-003	0.00000E+000	4.33663E-003	3.59960E-001	-1.10331E+000	3.57810E+000	10	...........
	17	0.24	7.30788E-001	5.99640E-003	0.00000E+000	4.38210E-003	3.59960E-001	-1.10536E+000	3.57810E+000	10	...........
	18	0.253333	7.37076E-001	5.99634E-003	0.00000E+000	4.41975E-003	3.59960E-001	-1.11259E+000	3.57810E+000	10	...........
	19	0.266667	7.43367E-001	5.99502E-003	0.00000E+000	4.45650E-003	3.59960E-001	-1.10365E+000	3.57810E+000	10	...........
	20	0.28	7.49680E-001	5.98940E-003	0.00000E+000	4.49013E-003	3.59960E-001	-1.10532E+000	3.57810E+000	10	...........
	21	0.293333	7.55978E-001	5.99584E-003	0.00000E+000	4.53272E-003	3.59960E-001	-1.11261E+000	3.57810E+000	10	...........
	22	0.306667	7.62221E-001	5.99211E-003	0.00000E+000	4.56731E-003	3.59960E-001	-1.10378E+000	3.57810E+000	10	...........
	23	0.32	7.68461E-001	5.99663E-003	0.00000E+000	4.60817E-003	3.59960E-001	-1.10567E+000	3.57810E+000	10	...........
	24	0.333333	7.74672E-001	5.99440E-003	0.00000E+000	4.64369E-003	3.59960E-001	-1.11305E+000	3.57810E+000	10	...........
	25	0.346667	7.80929E-001	5.99143E-003	0.00000E+000	4.67889E-003	3.59960E-001	-1.10414E+000	3.57810E+000	10	...........
	26	0.36	7.87200E-001	5.99345E-003	0.00000E+000	4.71804E-003	3.59960E-001	-1.10559E+000	3.57810E+000	10	...........
	27	0.373333	7.93444E-001	5.99475E-003	0.00000E+000	4.75650E-003	3.59960E-001	-1.11305E+000	3.57810E+000	10	...........
	28	0.386667	7.99659E-001	5.99788E-003	0.00000E+000	4.79626E-003	3.59960E-001	-1.10428E+000	3.57810E+000	10	...........
	29	0.4	8.05833E-001	5.99083E-003	0.00000E+000	4.82761E-003	3.59960E-001	-1.10583E+000	3.57810E+000	10	...........
	30	0.413333	8.12013E-001	5.99523E-003	0.00000E+000	4.86821E-003	3.59960E-001	-1.11315E+000	3.57810E+000	10	...........
	31	0.426667	8.18188E-001	5.99423E-003	0.00000E+000	4.90441E-003	3.59960E-001	-1.10418E+000	3.57810E+000	10	...........
	32	0.44	8.24350E-001	5.99161E-003	0.00000E+000	4.93919E-003	3.59960E-001	-1.10583E+000	3.57810E+000	10	...........
	33	0.453333	8.30474E-001	5.99696E-003	0.00000E+000	4.98032E-003	3.59960E-001	-1.11355E+000	3.57810E+000	10	...........
	34	0.466667	8.36642E-001	5.99190E-003	0.00000E+000	5.01308E-003	3.59960E-001	-1.10459E+000	3.57810E+000	10	...........
	35	0.48	8.42797E-001	5.99273E-003	0.00000E+000	5.05065E-003	3.59960E-001	-1.10604E+000	3.57810E+000	10	...........
	36	0.493333	8.48938E-001	5.99229E-003	0.00000E+000	5.08708E-003	3.59960E-001	-1.11330E+000	3.57810E+000	10	...........
	37	0.506667	8.55058E-001	5.99255E-003	0.00000E+000	5.12398E-003	3.59960E-001	-1.10426E+000	3.57810E+000	10	...........
	38	0.52	8.61171E-001	5.99593E-003	0.00000E+000	5.16352E-003	3.59960E-001	-1.10593E+000	3.57810E+000	10	...........
	39	0.533333	8.67254E-001	5.99552E-003	0.00000E+000	5.19964E-003	3.59960E-001	-1.11343E+000	3.57810E+000	10	...........
	40	0.546667	8.73355E-001	5.99282E-003	0.00000E+000	5.23386E-003	3.59960E-001	-1.10388E+000	3.57810E+000	10	...........
	41	0.56	8.79411E-001	5.99459E-003	0.00000E+000	5.27171E-003	3.59960E-001	-1.10511E+000	3.57810E+000	10	...........
	42	0.573333	8.85432E-001	5.99059E-003	0.00000E+000	5.30426E-003	3.59960E-001	-1.11297E+000	3.57810E+000	10	...........
	43	0.586667	8.91444E-001	5.99227E-003	0.00000E+000	5.34177E-003	3.59960E-001	-1.10374E+000	3.57810E+000	10	...........
	44	0.6	8.97441E-001	5.99434E-003	0.00000E+000	5.37957E-003	3.59960E-001	-1.10527E+000	3.57805E+000	10	...........
	45	0.613333	9.03391E-001	5.99403E-003	0.00000E+000	5.41495E-003	3.59960E-001	-1.11300E+000	3.57800E+000	10	...........
	46	0.626667	9.09339E-001	5.99367E-003	0.00000E+000	5.45028E-003	3.59960E-001	-1.10379E+000	3.57800E+000	10	...........
	47	0.64	9.15230E-001	5.99511E-003	0.00000E+000	5.48690E-003	3.59960E-001	-1.10490E+000	3.57800E+000	10	...........
	48	0.653333	9.21187E-001	5.99415E-003	0.00000E+000	5.52173E-003	3.59960E-001	-1.11301E+000	3.57800E+000	10	...........
	49	0.666667	9.27066E-001	5.99499E-003	0.00000E+000	5.55775E-003	3.59960E-001	-1.10400E+000	3.57800E+000	10	...........
	50	0.68	9.32875E-001	5.99578E-003	0.00000E+000	5.59332E-003	3.59960E-001	-1.10488E+000	3.57800E+000	10	...........
	51	0.693333	9.38641E-001	5.99345E-003	0.00000E+000	5.62570E-003	3.59960E-001	-1.11274E+000	3.57800E+000	10	...........
	52	0.706667	9.44447E-001	5.99439E-003	0.00000E+000	5.66138E-003	3.59960E-001	-1.10360E+000	3.57800E+000	10	...........
	53	0.72	9.50186E-001	5.99136E-003	0.00000E+000	5.69290E-003	3.59960E-001	-1.10482E+000	3.57800E+000	10	...........
	54	0.733333	9.55918E-001	5.99278E-003	0.00000E+000	5.72860E-003	3.59960E-001	-1.11294E+000	3.57800E+000	10	...........
	55	0.746667	9.61581E-001	5.99397E-003	0.00000E+000	5.76369E-003	3.59960E-001	-1.10384E+000	3.57800E+000	10	...........
	56	0.76	9.67196E-001	5.99367E-003	0.00000E+000	5.79705E-003	3.59960E-001	-1.10490E+000	3.57800E+000	10	...........
	57	0.773333	9.72824E-001	5.99074E-003	0.00000E+000	5.82793E-003	3.59960E-001	-1.11297E+000	3.57800E+000	10	...........
	58	0.786667	9.78363E-001	5.98906E-003	0.00000E+000	5.85947E-003	3.59960E-001	-1.10379E+000	3.57800E+000	10	...........
	59	0.8	9.83903E-001	5.99542E-003	0.00000E+000	5.89891E-003	3.59960E-001	-1.10487E+000	3.57800E+000	10	...........
	60	0.813333	9.89361E-001	5.99545E-003	0.00000E+000	5.93167E-003	3.59960E-001	-1.11302E+000	3.57800E+000	10	...........
	61	0.826667	9.94768E-001	5.99644E-003	0.00000E+000	5.96507E-003	3.59960E-001	-1.10359E+000	3.57800E+000	10	...........
	62	0.835	9.99212E-001	5.99902E-003	0.00000E+000	5.99429E-003	3.59960E-001	-1.11155E+000	3.57800E+000	10	...........
STARTTIMEOFFSET	QUANT	509.7334	Start Time Offset (s)