Folder: Tesis/Data/CV_CRGO300517_1/PWRCCD_CRGO300517_1/CHARGE_DISCHARGE (part 52)

File: CHARGE_#103.DTA
EXPLAIN
TAG	PWR800_CHARGE
TITLE	LABEL	PWR Cyclic Charge Discharge (Cell) - Charge Step	Test &Identifier
DATE	LABEL	22-6-2017	Date
TIME	LABEL	15:39:38	Time
NOTES	NOTES	3	&Notes...
	supercap test cell
	0.6mg
	6M KOH
PSTAT	PSTAT	IFC5000-01520	Potentiostat
CAPACITY	QUANT	1.00000E-003	Capacity (A-hr)
CELLTYPE	SELECTOR	1	&Cell Type
WORKINGCONNECTION	SELECTOR	0	&Working Lead
MAXCHARGETIME	VARIABLEANDUNITS	1.00000E+002	s	1.00000E+002	second(s)	Max &Charge Time
CHARGECURRENT	QUANT	6.00000E-003	&Charge Current (A)
VOLTAGEFINISH	TWOPARAM	F	1.00000E-003	3.60000E+003	&Voltage Finish	 I (A) < 	Max Time(s)
SAMPLETIME	QUANT	1.00000E-002	Sa&mple Period (s)
CHARGESTOPAT1	MULTIPARAM	4	1.00000E+000	Charge Stop At &1	Voltage > Limit	V
CHARGESTOPAT2	MULTIPARAM	0	0.00000E+000	Charge Stop At &2	None	N/A
AESBHCSELECTOR	TOGGLE	F	Save Both Half Cells
IRCOMP	TOGGLE	F	IR &Measure
EOC	QUANT	0	Open Circuit (V)
SEQUENCER	TOGGLE	TRUE	Run as Sequence
PSTATMODEL	IQUANT	53	Pstat Model
PSTATSECTION	LABEL	IFC5000-01520	Pstat Section
PSTATSERIALNO	LABEL	01520	Pstat Serial Number
CTRLMODE	IQUANT	0	Control Mode
ELECTROMETER	IQUANT	1	RE=0 or CS=1
IESTAB	IQUANT	0	I/E Stability
CASPEED	IQUANT	4	Control Amp Speed
CONVENTION	IQUANT	1	Current Convention
ICHRANGE	IQUANT	2	Ich Range
ICHRANGEMODE	TOGGLE	T	Ich Auto Range
ICHOFFSETENABLE	TOGGLE	F	Ich Offset Enable
ICHOFFSET	QUANT	0	Ich Offset (V)
ICHFILTER	IQUANT	1	Ich Filter
VCHRANGE	IQUANT	2	Vch Range
VCHRANGEMODE	TOGGLE	T	Vch Auto Range
VCHOFFSETENABLE	TOGGLE	F	Vch Offset Enable
VCHOFFSET	QUANT	0	Vch Offset (V)
VCHFILTER	IQUANT	1	Vch Filter
IERANGELOWERLIMIT	IQUANT	9	I/E Range Lower Limit
IERANGEMODE	TOGGLE	F	I/E AutoRange
IERANGE	IQUANT	10	I/E Range
ACHSELECT	IQUANT	1	Ach Select
ACHRANGE	IQUANT	2	Ach Range
ACHOFFSETENABLE	TOGGLE	F	Ach Offset Enable
ACHOFFSET	QUANT	0	Ach Offset (V)
ACHFILTER	IQUANT	1	Ach Filter
CABLEID	IQUANT	14	Cable ID
DCCALDATE	LABEL	20-10-2016	DC Calibration Date
ACCALDATE	LABEL	12/3/2015	AC Calibration Date
FRAMEWORKVERSION	QUANT	7.01	Framework Version
INSTRUMENTVERSION	LABEL	4.00	Instrument Version
CURVE	TABLE	70
	Pt	T	Vf	Im	Vu	Pwr	Sig	Ach	Temp	IERange	Over
	#	s	V	A	V	W	V	V	deg C	#	bits
	0	0.013333	5.88953E-001	5.99333E-003	0.00000E+000	3.52979E-003	3.59960E-001	-1.05567E+000	3.57730E+000	10	...........
	1	0.026667	5.97263E-001	5.99325E-003	0.00000E+000	3.57954E-003	3.59960E-001	-1.05875E+000	3.57730E+000	10	...........
	2	0.04	6.04819E-001	6.00011E-003	0.00000E+000	3.62898E-003	3.59960E-001	-1.06486E+000	3.57730E+000	10	...........
	3	0.053333	6.11991E-001	5.99369E-003	0.00000E+000	3.66808E-003	3.59960E-001	-1.05588E+000	3.57730E+000	10	...........
	4	0.066667	6.18996E-001	5.99689E-003	0.00000E+000	3.71205E-003	3.59960E-001	-1.05866E+000	3.57730E+000	10	...........
	5	0.08	6.25691E-001	5.99050E-003	0.00000E+000	3.74820E-003	3.59960E-001	-1.06451E+000	3.57730E+000	10	...........
	6	0.093333	6.32278E-001	5.99456E-003	0.00000E+000	3.79023E-003	3.59960E-001	-1.05578E+000	3.57730E+000	10	...........
	7	0.106667	6.38738E-001	5.99505E-003	0.00000E+000	3.82927E-003	3.59960E-001	-1.05887E+000	3.57730E+000	10	...........
	8	0.12	6.45153E-001	5.99560E-003	0.00000E+000	3.86808E-003	3.59960E-001	-1.06501E+000	3.57730E+000	10	...........
	9	0.133333	6.51444E-001	5.99489E-003	0.00000E+000	3.90533E-003	3.59960E-001	-1.05550E+000	3.57730E+000	10	...........
	10	0.146667	6.57680E-001	5.99551E-003	0.00000E+000	3.94313E-003	3.59960E-001	-1.05837E+000	3.57730E+000	10	...........
	11	0.16	6.63880E-001	5.99708E-003	0.00000E+000	3.98134E-003	3.59960E-001	-1.06470E+000	3.57730E+000	10	...........
	12	0.173333	6.70065E-001	5.99402E-003	0.00000E+000	4.01638E-003	3.59960E-001	-1.05576E+000	3.57730E+000	10	...........
	13	0.186667	6.76183E-001	5.99241E-003	0.00000E+000	4.05197E-003	3.59960E-001	-1.05859E+000	3.57730E+000	10	...........
	14	0.2	6.82284E-001	5.99322E-003	0.00000E+000	4.08908E-003	3.59960E-001	-1.06458E+000	3.57730E+000	10	...........
	15	0.213333	6.88341E-001	5.99193E-003	0.00000E+000	4.12450E-003	3.59960E-001	-1.05522E+000	3.57730E+000	10	...........
	16	0.226667	6.94426E-001	5.99311E-003	0.00000E+000	4.16177E-003	3.59960E-001	-1.05844E+000	3.57730E+000	10	...........
	17	0.24	7.00456E-001	5.99287E-003	0.00000E+000	4.19774E-003	3.59960E-001	-1.06470E+000	3.57730E+000	10	...........
	18	0.253333	7.06477E-001	5.99351E-003	0.00000E+000	4.23427E-003	3.59960E-001	-1.05553E+000	3.57730E+000	10	...........
	19	0.266667	7.12453E-001	5.99450E-003	0.00000E+000	4.27080E-003	3.59960E-001	-1.05801E+000	3.57730E+000	10	...........
	20	0.28	7.18509E-001	5.99117E-003	0.00000E+000	4.30471E-003	3.59960E-001	-1.06402E+000	3.57730E+000	10	...........
	21	0.293333	7.24455E-001	5.99484E-003	0.00000E+000	4.34299E-003	3.59960E-001	-1.05528E+000	3.57730E+000	10	...........
	22	0.306667	7.30389E-001	5.99453E-003	0.00000E+000	4.37834E-003	3.59960E-001	-1.05805E+000	3.57730E+000	10	...........
	23	0.32	7.36356E-001	5.99535E-003	0.00000E+000	4.41471E-003	3.59960E-001	-1.06426E+000	3.57730E+000	10	...........
	24	0.333333	7.42324E-001	5.99647E-003	0.00000E+000	4.45132E-003	3.59960E-001	-1.05496E+000	3.57730E+000	10	...........
	25	0.346667	7.48266E-001	5.99230E-003	0.00000E+000	4.48383E-003	3.59960E-001	-1.05776E+000	3.57730E+000	10	...........
	26	0.36	7.54192E-001	5.99708E-003	0.00000E+000	4.52295E-003	3.59960E-001	-1.06419E+000	3.57730E+000	10	...........
	27	0.373333	7.60118E-001	5.99515E-003	0.00000E+000	4.55702E-003	3.59960E-001	-1.05532E+000	3.57730E+000	10	...........
	28	0.386667	7.66049E-001	5.99642E-003	0.00000E+000	4.59355E-003	3.59960E-001	-1.05794E+000	3.57730E+000	10	...........
	29	0.4	7.72028E-001	5.99090E-003	0.00000E+000	4.62515E-003	3.59960E-001	-1.06402E+000	3.57730E+000	10	...........
	30	0.413333	7.77911E-001	5.99182E-003	0.00000E+000	4.66110E-003	3.59960E-001	-1.05489E+000	3.57730E+000	10	...........
	31	0.426667	7.83843E-001	5.99652E-003	0.00000E+000	4.70033E-003	3.59960E-001	-1.05778E+000	3.57730E+000	10	...........
	32	0.44	7.89711E-001	5.99288E-003	0.00000E+000	4.73265E-003	3.59960E-001	-1.06440E+000	3.57730E+000	10	...........
	33	0.453333	7.95668E-001	5.99040E-003	0.00000E+000	4.76637E-003	3.59960E-001	-1.05496E+000	3.57730E+000	10	...........
	34	0.466667	8.01551E-001	5.99632E-003	0.00000E+000	4.80635E-003	3.59960E-001	-1.05754E+000	3.57730E+000	10	...........
	35	0.48	8.07403E-001	5.99832E-003	0.00000E+000	4.84306E-003	3.59960E-001	-1.06430E+000	3.57730E+000	10	...........
	36	0.493333	8.13314E-001	5.99374E-003	0.00000E+000	4.87479E-003	3.59960E-001	-1.05525E+000	3.57730E+000	10	...........
	37	0.506667	8.19207E-001	5.99928E-003	0.00000E+000	4.91465E-003	3.59960E-001	-1.05795E+000	3.57730E+000	10	...........
	38	0.52	8.25116E-001	5.99718E-003	0.00000E+000	4.94837E-003	3.59960E-001	-1.06455E+000	3.57730E+000	10	...........
	39	0.533333	8.30971E-001	5.99686E-003	0.00000E+000	4.98322E-003	3.59960E-001	-1.05521E+000	3.57730E+000	10	...........
	40	0.546667	8.36829E-001	5.98999E-003	0.00000E+000	5.01260E-003	3.59960E-001	-1.05755E+000	3.57730E+000	10	...........
	41	0.56	8.42721E-001	5.99473E-003	0.00000E+000	5.05188E-003	3.59960E-001	-1.06406E+000	3.57730E+000	10	...........
	42	0.573333	8.48607E-001	5.99470E-003	0.00000E+000	5.08714E-003	3.59960E-001	-1.05541E+000	3.57730E+000	10	...........
	43	0.586667	8.54455E-001	5.99780E-003	0.00000E+000	5.12485E-003	3.59960E-001	-1.05763E+000	3.57730E+000	10	...........
	44	0.6	8.60290E-001	5.99700E-003	0.00000E+000	5.15916E-003	3.59960E-001	-1.06396E+000	3.57730E+000	10	...........
	45	0.613333	8.66102E-001	5.99377E-003	0.00000E+000	5.19122E-003	3.59960E-001	-1.05460E+000	3.57730E+000	10	...........
	46	0.626667	8.71965E-001	5.99428E-003	0.00000E+000	5.22681E-003	3.59960E-001	-1.05706E+000	3.57730E+000	10	...........
	47	0.64	8.77774E-001	5.99762E-003	0.00000E+000	5.26455E-003	3.59960E-001	-1.06403E+000	3.57730E+000	10	...........
	48	0.653333	8.83585E-001	5.99214E-003	0.00000E+000	5.29457E-003	3.59960E-001	-1.05475E+000	3.57730E+000	10	...........
	49	0.666667	8.89398E-001	5.99362E-003	0.00000E+000	5.33072E-003	3.59960E-001	-1.05718E+000	3.57730E+000	10	...........
	50	0.68	8.95138E-001	5.99571E-003	0.00000E+000	5.36699E-003	3.59960E-001	-1.06389E+000	3.57730E+000	10	...........
	51	0.693333	9.00906E-001	5.99203E-003	0.00000E+000	5.39826E-003	3.59960E-001	-1.05461E+000	3.57730E+000	10	...........
	52	0.706667	9.06648E-001	5.99694E-003	0.00000E+000	5.43712E-003	3.59960E-001	-1.05729E+000	3.57730E+000	10	...........
	53	0.72	9.12390E-001	5.99430E-003	0.00000E+000	5.46914E-003	3.59960E-001	-1.06416E+000	3.57730E+000	10	...........
	54	0.733333	9.18084E-001	5.99278E-003	0.00000E+000	5.50187E-003	3.59960E-001	-1.05481E+000	3.57730E+000	10	...........
	55	0.746667	9.23873E-001	5.99277E-003	0.00000E+000	5.53656E-003	3.59960E-001	-1.05702E+000	3.57730E+000	10	...........
	56	0.76	9.29505E-001	5.99562E-003	0.00000E+000	5.57296E-003	3.59960E-001	-1.06401E+000	3.57730E+000	10	...........
	57	0.773333	9.35194E-001	5.99704E-003	0.00000E+000	5.60839E-003	3.59960E-001	-1.05462E+000	3.57730E+000	10	...........
	58	0.786667	9.40826E-001	5.99196E-003	0.00000E+000	5.63739E-003	3.59960E-001	-1.05697E+000	3.57826E+000	10	...........
	59	0.8	9.46442E-001	5.99412E-003	0.00000E+000	5.67308E-003	3.59960E-001	-1.06399E+000	3.57840E+000	10	...........
	60	0.813333	9.52031E-001	5.99538E-003	0.00000E+000	5.70779E-003	3.59960E-001	-1.05444E+000	3.57840E+000	10	...........
	61	0.826667	9.57566E-001	5.99673E-003	0.00000E+000	5.74227E-003	3.59960E-001	-1.05710E+000	3.57840E+000	10	...........
	62	0.84	9.63090E-001	5.99326E-003	0.00000E+000	5.77205E-003	3.59960E-001	-1.06409E+000	3.57840E+000	10	...........
	63	0.853333	9.68609E-001	5.99392E-003	0.00000E+000	5.80576E-003	3.59960E-001	-1.05452E+000	3.57840E+000	10	...........
	64	0.866667	9.74147E-001	5.99146E-003	0.00000E+000	5.83656E-003	3.59960E-001	-1.05699E+000	3.57840E+000	10	...........
	65	0.88	9.79598E-001	5.99762E-003	0.00000E+000	5.87525E-003	3.59960E-001	-1.06377E+000	3.57840E+000	10	...........
	66	0.893333	9.84971E-001	5.99292E-003	0.00000E+000	5.90285E-003	3.59960E-001	-1.05468E+000	3.57840E+000	10	...........
	67	0.906667	9.90310E-001	5.99599E-003	0.00000E+000	5.93789E-003	3.59960E-001	-1.05686E+000	3.57840E+000	10	...........
	68	0.92	9.95670E-001	5.99286E-003	0.00000E+000	5.96691E-003	3.59960E-001	-1.06342E+000	3.57840E+000	10	...........
	69	0.926667	9.99641E-001	5.98956E-003	0.00000E+000	5.98741E-003	3.59960E-001	-1.04704E+000	3.57840E+000	10	...........
STARTTIMEOFFSET	QUANT	200.7416	Start Time Offset (s)

File: CHARGE_#104.DTA
EXPLAIN
TAG	PWR800_CHARGE
TITLE	LABEL	PWR Cyclic Charge Discharge (Cell) - Charge Step	Test &Identifier
DATE	LABEL	22-6-2017	Date
TIME	LABEL	15:39:41	Time
NOTES	NOTES	3	&Notes...
	supercap test cell
	0.6mg
	6M KOH
PSTAT	PSTAT	IFC5000-01520	Potentiostat
CAPACITY	QUANT	1.00000E-003	Capacity (A-hr)
CELLTYPE	SELECTOR	1	&Cell Type
WORKINGCONNECTION	SELECTOR	0	&Working Lead
MAXCHARGETIME	VARIABLEANDUNITS	1.00000E+002	s	1.00000E+002	second(s)	Max &Charge Time
CHARGECURRENT	QUANT	6.00000E-003	&Charge Current (A)
VOLTAGEFINISH	TWOPARAM	F	1.00000E-003	3.60000E+003	&Voltage Finish	 I (A) < 	Max Time(s)
SAMPLETIME	QUANT	1.00000E-002	Sa&mple Period (s)
CHARGESTOPAT1	MULTIPARAM	4	1.00000E+000	Charge Stop At &1	Voltage > Limit	V
CHARGESTOPAT2	MULTIPARAM	0	0.00000E+000	Charge Stop At &2	None	N/A
AESBHCSELECTOR	TOGGLE	F	Save Both Half Cells
IRCOMP	TOGGLE	F	IR &Measure
EOC	QUANT	0	Open Circuit (V)
SEQUENCER	TOGGLE	TRUE	Run as Sequence
PSTATMODEL	IQUANT	53	Pstat Model
PSTATSECTION	LABEL	IFC5000-01520	Pstat Section
PSTATSERIALNO	LABEL	01520	Pstat Serial Number
CTRLMODE	IQUANT	0	Control Mode
ELECTROMETER	IQUANT	1	RE=0 or CS=1
IESTAB	IQUANT	0	I/E Stability
CASPEED	IQUANT	4	Control Amp Speed
CONVENTION	IQUANT	1	Current Convention
ICHRANGE	IQUANT	2	Ich Range
ICHRANGEMODE	TOGGLE	T	Ich Auto Range
ICHOFFSETENABLE	TOGGLE	F	Ich Offset Enable
ICHOFFSET	QUANT	0	Ich Offset (V)
ICHFILTER	IQUANT	1	Ich Filter
VCHRANGE	IQUANT	2	Vch Range
VCHRANGEMODE	TOGGLE	T	Vch Auto Range
VCHOFFSETENABLE	TOGGLE	F	Vch Offset Enable
VCHOFFSET	QUANT	0	Vch Offset (V)
VCHFILTER	IQUANT	1	Vch Filter
IERANGELOWERLIMIT	IQUANT	9	I/E Range Lower Limit
IERANGEMODE	TOGGLE	F	I/E AutoRange
IERANGE	IQUANT	10	I/E Range
ACHSELECT	IQUANT	1	Ach Select
ACHRANGE	IQUANT	2	Ach Range
ACHOFFSETENABLE	TOGGLE	F	Ach Offset Enable
ACHOFFSET	QUANT	0	Ach Offset (V)
ACHFILTER	IQUANT	1	Ach Filter
CABLEID	IQUANT	14	Cable ID
DCCALDATE	LABEL	20-10-2016	DC Calibration Date
ACCALDATE	LABEL	12/3/2015	AC Calibration Date
FRAMEWORKVERSION	QUANT	7.01	Framework Version
INSTRUMENTVERSION	LABEL	4.00	Instrument Version
CURVE	TABLE	70
	Pt	T	Vf	Im	Vu	Pwr	Sig	Ach	Temp	IERange	Over
	#	s	V	A	V	W	V	V	deg C	#	bits
	0	0.013333	5.89340E-001	5.98994E-003	0.00000E+000	3.53011E-003	3.59960E-001	-1.06426E+000	3.57710E+000	10	...........
	1	0.026667	5.97627E-001	5.99353E-003	0.00000E+000	3.58189E-003	3.59960E-001	-1.06329E+000	3.57710E+000	10	...........
	2	0.04	6.05212E-001	5.99449E-003	0.00000E+000	3.62794E-003	3.59960E-001	-1.05727E+000	3.57710E+000	10	...........
	3	0.053333	6.12387E-001	5.99563E-003	0.00000E+000	3.67164E-003	3.59960E-001	-1.06405E+000	3.57710E+000	10	...........
	4	0.066667	6.19307E-001	5.99368E-003	0.00000E+000	3.71193E-003	3.59960E-001	-1.06266E+000	3.57710E+000	10	...........
	5	0.08	6.26056E-001	5.99191E-003	0.00000E+000	3.75127E-003	3.59960E-001	-1.05688E+000	3.57710E+000	10	...........
	6	0.093333	6.32597E-001	5.99590E-003	0.00000E+000	3.79299E-003	3.59960E-001	-1.06426E+000	3.57710E+000	10	...........
	7	0.106667	6.39107E-001	5.99537E-003	0.00000E+000	3.83168E-003	3.59960E-001	-1.06279E+000	3.57710E+000	10	...........
	8	0.12	6.45489E-001	5.99548E-003	0.00000E+000	3.87002E-003	3.59960E-001	-1.05701E+000	3.57710E+000	10	...........
	9	0.133333	6.51794E-001	5.99236E-003	0.00000E+000	3.90579E-003	3.59960E-001	-1.06388E+000	3.57710E+000	10	...........
	10	0.146667	6.58050E-001	5.99759E-003	0.00000E+000	3.94671E-003	3.59960E-001	-1.06251E+000	3.57710E+000	10	...........
	11	0.16	6.64252E-001	5.99049E-003	0.00000E+000	3.97919E-003	3.59960E-001	-1.05679E+000	3.57710E+000	10	...........
	12	0.173333	6.70413E-001	5.99579E-003	0.00000E+000	4.01966E-003	3.59960E-001	-1.06401E+000	3.57716E+000	10	...........
	13	0.186667	6.76523E-001	5.99233E-003	0.00000E+000	4.05395E-003	3.59960E-001	-1.06255E+000	3.57720E+000	10	...........
	14	0.2	6.82569E-001	5.99282E-003	0.00000E+000	4.09051E-003	3.59960E-001	-1.05644E+000	3.57720E+000	10	...........
	15	0.213333	6.88591E-001	5.99362E-003	0.00000E+000	4.12716E-003	3.59960E-001	-1.06356E+000	3.57720E+000	10	...........
	16	0.226667	6.94685E-001	5.99476E-003	0.00000E+000	4.16447E-003	3.59960E-001	-1.06215E+000	3.57720E+000	10	...........
	17	0.24	7.00716E-001	5.99408E-003	0.00000E+000	4.20015E-003	3.59960E-001	-1.05603E+000	3.57720E+000	10	...........
	18	0.253333	7.06719E-001	5.98970E-003	0.00000E+000	4.23304E-003	3.59960E-001	-1.06312E+000	3.57720E+000	10	...........
	19	0.266667	7.12727E-001	5.99451E-003	0.00000E+000	4.27245E-003	3.59960E-001	-1.06171E+000	3.57720E+000	10	...........
	20	0.28	7.18769E-001	5.99757E-003	0.00000E+000	4.31086E-003	3.59960E-001	-1.05587E+000	3.57720E+000	10	...........
	21	0.293333	7.24717E-001	5.99216E-003	0.00000E+000	4.34262E-003	3.59960E-001	-1.06302E+000	3.57720E+000	10	...........
	22	0.306667	7.30678E-001	5.99438E-003	0.00000E+000	4.37996E-003	3.59960E-001	-1.06219E+000	3.57720E+000	10	...........
	23	0.32	7.36638E-001	5.99716E-003	0.00000E+000	4.41774E-003	3.59960E-001	-1.05600E+000	3.57720E+000	10	...........
	24	0.333333	7.42614E-001	5.99192E-003	0.00000E+000	4.44969E-003	3.59960E-001	-1.06305E+000	3.57720E+000	10	...........
	25	0.346667	7.48559E-001	5.99175E-003	0.00000E+000	4.48517E-003	3.59960E-001	-1.06211E+000	3.57720E+000	10	...........
	26	0.36	7.54476E-001	5.99545E-003	0.00000E+000	4.52342E-003	3.59960E-001	-1.05623E+000	3.57720E+000	10	...........
	27	0.373333	7.60447E-001	5.99425E-003	0.00000E+000	4.55831E-003	3.59960E-001	-1.06330E+000	3.57720E+000	10	...........
	28	0.386667	7.66341E-001	5.99088E-003	0.00000E+000	4.59106E-003	3.59960E-001	-1.06221E+000	3.57720E+000	10	...........
	29	0.4	7.72281E-001	5.99573E-003	0.00000E+000	4.63039E-003	3.59960E-001	-1.05583E+000	3.57720E+000	10	...........
	30	0.413333	7.78202E-001	5.99301E-003	0.00000E+000	4.66377E-003	3.59960E-001	-1.06306E+000	3.57720E+000	10	...........
	31	0.426667	7.84119E-001	6.00048E-003	0.00000E+000	4.70509E-003	3.59960E-001	-1.06218E+000	3.57720E+000	10	...........
	32	0.44	7.90011E-001	5.99695E-003	0.00000E+000	4.73766E-003	3.59960E-001	-1.05577E+000	3.57720E+000	10	...........
	33	0.453333	7.95960E-001	5.99446E-003	0.00000E+000	4.77135E-003	3.59960E-001	-1.06294E+000	3.57720E+000	10	...........
	34	0.466667	8.01841E-001	5.99567E-003	0.00000E+000	4.80757E-003	3.59960E-001	-1.06187E+000	3.57720E+000	10	...........
	35	0.48	8.07714E-001	5.99311E-003	0.00000E+000	4.84072E-003	3.59960E-001	-1.05550E+000	3.57720E+000	10	...........
	36	0.493333	8.13619E-001	5.99528E-003	0.00000E+000	4.87788E-003	3.59960E-001	-1.06265E+000	3.57720E+000	10	...........
	37	0.506667	8.19535E-001	5.99591E-003	0.00000E+000	4.91386E-003	3.59960E-001	-1.06167E+000	3.57720E+000	10	...........
	38	0.52	8.25374E-001	5.99517E-003	0.00000E+000	4.94826E-003	3.59960E-001	-1.05531E+000	3.57720E+000	10	...........
	39	0.533333	8.31273E-001	5.99338E-003	0.00000E+000	4.98214E-003	3.59960E-001	-1.06208E+000	3.57720E+000	10	...........
	40	0.546667	8.37130E-001	5.99238E-003	0.00000E+000	5.01640E-003	3.59960E-001	-1.06119E+000	3.57720E+000	10	...........
	41	0.56	8.43002E-001	5.98960E-003	0.00000E+000	5.04924E-003	3.59960E-001	-1.05499E+000	3.57720E+000	10	...........
	42	0.573333	8.48894E-001	5.99231E-003	0.00000E+000	5.08684E-003	3.59960E-001	-1.06203E+000	3.57720E+000	10	...........
	43	0.586667	8.54730E-001	5.99764E-003	0.00000E+000	5.12636E-003	3.59960E-001	-1.06139E+000	3.57720E+000	10	...........
	44	0.6	8.60579E-001	5.99402E-003	0.00000E+000	5.15833E-003	3.59960E-001	-1.05489E+000	3.57720E+000	10	...........
	45	0.613333	8.66400E-001	5.99342E-003	0.00000E+000	5.19269E-003	3.59960E-001	-1.06175E+000	3.57720E+000	10	...........
	46	0.626667	8.72272E-001	5.99784E-003	0.00000E+000	5.23175E-003	3.59960E-001	-1.06124E+000	3.57720E+000	10	...........
	47	0.64	8.78048E-001	5.99424E-003	0.00000E+000	5.26323E-003	3.59960E-001	-1.05496E+000	3.57720E+000	10	...........
	48	0.653333	8.83871E-001	5.99265E-003	0.00000E+000	5.29673E-003	3.59960E-001	-1.06198E+000	3.57720E+000	10	...........
	49	0.666667	8.89699E-001	5.99756E-003	0.00000E+000	5.33602E-003	3.59960E-001	-1.06105E+000	3.57720E+000	10	...........
	50	0.68	8.95494E-001	5.99847E-003	0.00000E+000	5.37160E-003	3.59960E-001	-1.05488E+000	3.57720E+000	10	...........
	51	0.693333	9.01239E-001	5.99489E-003	0.00000E+000	5.40282E-003	3.59960E-001	-1.06186E+000	3.57720E+000	10	...........
	52	0.706667	9.06970E-001	5.99537E-003	0.00000E+000	5.43762E-003	3.59960E-001	-1.06123E+000	3.57720E+000	10	...........
	53	0.72	9.12722E-001	5.99318E-003	0.00000E+000	5.47010E-003	3.59960E-001	-1.05479E+000	3.57720E+000	10	...........
	54	0.733333	9.18441E-001	5.99430E-003	0.00000E+000	5.50542E-003	3.59960E-001	-1.06175E+000	3.57720E+000	10	...........
	55	0.746667	9.24157E-001	5.99502E-003	0.00000E+000	5.54034E-003	3.59960E-001	-1.06103E+000	3.57720E+000	10	...........
	56	0.76	9.29848E-001	5.99204E-003	0.00000E+000	5.57169E-003	3.59960E-001	-1.05497E+000	3.57720E+000	10	...........
	57	0.773333	9.35481E-001	5.99636E-003	0.00000E+000	5.60948E-003	3.59960E-001	-1.06209E+000	3.57720E+000	10	...........
	58	0.786667	9.41093E-001	5.99120E-003	0.00000E+000	5.63828E-003	3.59960E-001	-1.06109E+000	3.57720E+000	10	...........
	59	0.8	9.46746E-001	5.99637E-003	0.00000E+000	5.67703E-003	3.59960E-001	-1.05477E+000	3.57720E+000	10	...........
	60	0.813333	9.52314E-001	5.99481E-003	0.00000E+000	5.70894E-003	3.59960E-001	-1.06159E+000	3.57720E+000	10	...........
	61	0.826667	9.57883E-001	5.99167E-003	0.00000E+000	5.73933E-003	3.59960E-001	-1.06112E+000	3.57720E+000	10	...........
	62	0.84	9.63447E-001	5.99680E-003	0.00000E+000	5.77759E-003	3.59960E-001	-1.05499E+000	3.57720E+000	10	...........
	63	0.853333	9.68938E-001	5.99469E-003	0.00000E+000	5.80848E-003	3.59960E-001	-1.06185E+000	3.57720E+000	10	...........
	64	0.866667	9.74453E-001	5.99147E-003	0.00000E+000	5.83840E-003	3.59960E-001	-1.06094E+000	3.57720E+000	10	...........
	65	0.88	9.79892E-001	5.99728E-003	0.00000E+000	5.87668E-003	3.59960E-001	-1.05444E+000	3.57720E+000	10	...........
	66	0.893333	9.85280E-001	5.99442E-003	0.00000E+000	5.90618E-003	3.59960E-001	-1.06140E+000	3.57720E+000	10	...........
	67	0.906667	9.90668E-001	5.99322E-003	0.00000E+000	5.93729E-003	3.59960E-001	-1.06096E+000	3.57720E+000	10	...........
	68	0.92	9.95967E-001	5.98948E-003	0.00000E+000	5.96533E-003	3.59960E-001	-1.05458E+000	3.57720E+000	10	...........
	69	0.925	9.99670E-001	5.99123E-003	0.00000E+000	5.98926E-003	3.59960E-001	-1.06792E+000	3.57720E+000	10	...........
STARTTIMEOFFSET	QUANT	202.5833	Start Time Offset (s)