Folder: Tesis/Data/CV_CRGO300517_1/PWRCCD_CRGO300517_1/CHARGE_DISCHARGE (part 184)

File: CHARGE_#374.DTA
EXPLAIN
TAG	PWR800_CHARGE
TITLE	LABEL	PWR Cyclic Charge Discharge (Cell) - Charge Step	Test &Identifier
DATE	LABEL	22-6-2017	Date
TIME	LABEL	15:50:56	Time
NOTES	NOTES	3	&Notes...
	supercap test cell
	0.6mg
	6M KOH
PSTAT	PSTAT	IFC5000-01520	Potentiostat
CAPACITY	QUANT	1.00000E-003	Capacity (A-hr)
CELLTYPE	SELECTOR	1	&Cell Type
WORKINGCONNECTION	SELECTOR	0	&Working Lead
MAXCHARGETIME	VARIABLEANDUNITS	1.00000E+002	s	1.00000E+002	second(s)	Max &Charge Time
CHARGECURRENT	QUANT	6.00000E-003	&Charge Current (A)
VOLTAGEFINISH	TWOPARAM	F	1.00000E-003	3.60000E+003	&Voltage Finish	 I (A) < 	Max Time(s)
SAMPLETIME	QUANT	1.00000E-002	Sa&mple Period (s)
CHARGESTOPAT1	MULTIPARAM	4	1.00000E+000	Charge Stop At &1	Voltage > Limit	V
CHARGESTOPAT2	MULTIPARAM	0	0.00000E+000	Charge Stop At &2	None	N/A
AESBHCSELECTOR	TOGGLE	F	Save Both Half Cells
IRCOMP	TOGGLE	F	IR &Measure
EOC	QUANT	0	Open Circuit (V)
SEQUENCER	TOGGLE	TRUE	Run as Sequence
PSTATMODEL	IQUANT	53	Pstat Model
PSTATSECTION	LABEL	IFC5000-01520	Pstat Section
PSTATSERIALNO	LABEL	01520	Pstat Serial Number
CTRLMODE	IQUANT	0	Control Mode
ELECTROMETER	IQUANT	1	RE=0 or CS=1
IESTAB	IQUANT	0	I/E Stability
CASPEED	IQUANT	4	Control Amp Speed
CONVENTION	IQUANT	1	Current Convention
ICHRANGE	IQUANT	2	Ich Range
ICHRANGEMODE	TOGGLE	T	Ich Auto Range
ICHOFFSETENABLE	TOGGLE	F	Ich Offset Enable
ICHOFFSET	QUANT	0	Ich Offset (V)
ICHFILTER	IQUANT	1	Ich Filter
VCHRANGE	IQUANT	2	Vch Range
VCHRANGEMODE	TOGGLE	T	Vch Auto Range
VCHOFFSETENABLE	TOGGLE	F	Vch Offset Enable
VCHOFFSET	QUANT	0	Vch Offset (V)
VCHFILTER	IQUANT	1	Vch Filter
IERANGELOWERLIMIT	IQUANT	9	I/E Range Lower Limit
IERANGEMODE	TOGGLE	F	I/E AutoRange
IERANGE	IQUANT	10	I/E Range
ACHSELECT	IQUANT	1	Ach Select
ACHRANGE	IQUANT	2	Ach Range
ACHOFFSETENABLE	TOGGLE	F	Ach Offset Enable
ACHOFFSET	QUANT	0	Ach Offset (V)
ACHFILTER	IQUANT	1	Ach Filter
CABLEID	IQUANT	14	Cable ID
DCCALDATE	LABEL	20-10-2016	DC Calibration Date
ACCALDATE	LABEL	12/3/2015	AC Calibration Date
FRAMEWORKVERSION	QUANT	7.01	Framework Version
INSTRUMENTVERSION	LABEL	4.00	Instrument Version
CURVE	TABLE	61
	Pt	T	Vf	Im	Vu	Pwr	Sig	Ach	Temp	IERange	Over
	#	s	V	A	V	W	V	V	deg C	#	bits
	0	0.013333	6.22975E-001	5.99332E-003	0.00000E+000	3.73369E-003	3.59960E-001	-1.12617E+000	3.57800E+000	10	...........
	1	0.026667	6.31624E-001	5.99011E-003	0.00000E+000	3.78350E-003	3.59960E-001	-1.11759E+000	3.57800E+000	10	...........
	2	0.04	6.39653E-001	5.98940E-003	0.00000E+000	3.83114E-003	3.59960E-001	-1.12382E+000	3.57800E+000	10	...........
	3	0.053333	6.47262E-001	5.99850E-003	0.00000E+000	3.88260E-003	3.59960E-001	-1.12631E+000	3.57800E+000	10	...........
	4	0.066667	6.54618E-001	5.99613E-003	0.00000E+000	3.92517E-003	3.59960E-001	-1.11749E+000	3.57800E+000	10	...........
	5	0.08	6.61725E-001	5.99163E-003	0.00000E+000	3.96481E-003	3.59960E-001	-1.12354E+000	3.57800E+000	10	...........
	6	0.093333	6.68750E-001	5.99162E-003	0.00000E+000	4.00690E-003	3.59960E-001	-1.12572E+000	3.57800E+000	10	...........
	7	0.106667	6.75604E-001	5.99540E-003	0.00000E+000	4.05052E-003	3.59960E-001	-1.11742E+000	3.57800E+000	10	...........
	8	0.12	6.82370E-001	5.99399E-003	0.00000E+000	4.09012E-003	3.59960E-001	-1.12366E+000	3.57800E+000	10	...........
	9	0.133333	6.89098E-001	5.99126E-003	0.00000E+000	4.12856E-003	3.59960E-001	-1.12577E+000	3.57800E+000	10	...........
	10	0.146667	6.95778E-001	5.99437E-003	0.00000E+000	4.17075E-003	3.59960E-001	-1.11693E+000	3.57800E+000	10	...........
	11	0.16	7.02389E-001	5.99979E-003	0.00000E+000	4.21419E-003	3.59960E-001	-1.12368E+000	3.57800E+000	10	...........
	12	0.173333	7.09004E-001	5.99517E-003	0.00000E+000	4.25060E-003	3.59960E-001	-1.12553E+000	3.57800E+000	10	...........
	13	0.186667	7.15525E-001	5.99158E-003	0.00000E+000	4.28713E-003	3.59960E-001	-1.11733E+000	3.57800E+000	10	...........
	14	0.2	7.22034E-001	5.99310E-003	0.00000E+000	4.32722E-003	3.59960E-001	-1.12340E+000	3.57800E+000	10	...........
	15	0.213333	7.28514E-001	5.99465E-003	0.00000E+000	4.36718E-003	3.59960E-001	-1.12507E+000	3.57800E+000	10	...........
	16	0.226667	7.34989E-001	5.99325E-003	0.00000E+000	4.40497E-003	3.59960E-001	-1.11682E+000	3.57800E+000	10	...........
	17	0.24	7.41430E-001	5.99085E-003	0.00000E+000	4.44179E-003	3.59960E-001	-1.12337E+000	3.57800E+000	10	...........
	18	0.253333	7.47882E-001	5.99581E-003	0.00000E+000	4.48416E-003	3.59960E-001	-1.12515E+000	3.57800E+000	10	...........
	19	0.266667	7.54284E-001	5.99085E-003	0.00000E+000	4.51880E-003	3.59960E-001	-1.11631E+000	3.57800E+000	10	...........
	20	0.28	7.60708E-001	5.98799E-003	0.00000E+000	4.55511E-003	3.59960E-001	-1.12243E+000	3.57800E+000	10	...........
	21	0.293333	7.67065E-001	5.99182E-003	0.00000E+000	4.59612E-003	3.59960E-001	-1.12450E+000	3.57800E+000	10	...........
	22	0.306667	7.73450E-001	5.99308E-003	0.00000E+000	4.63535E-003	3.59960E-001	-1.11626E+000	3.57800E+000	10	...........
	23	0.32	7.79791E-001	5.99368E-003	0.00000E+000	4.67382E-003	3.59960E-001	-1.12287E+000	3.57800E+000	10	...........
	24	0.333333	7.86140E-001	5.99142E-003	0.00000E+000	4.71010E-003	3.59960E-001	-1.12439E+000	3.57800E+000	10	...........
	25	0.346667	7.92454E-001	5.99256E-003	0.00000E+000	4.74883E-003	3.59960E-001	-1.11582E+000	3.57800E+000	10	...........
	26	0.36	7.98771E-001	5.99300E-003	0.00000E+000	4.78703E-003	3.59960E-001	-1.12227E+000	3.57800E+000	10	...........
	27	0.373333	8.05073E-001	5.99650E-003	0.00000E+000	4.82762E-003	3.59960E-001	-1.12429E+000	3.57800E+000	10	...........
	28	0.386667	8.11369E-001	5.99649E-003	0.00000E+000	4.86537E-003	3.59960E-001	-1.11601E+000	3.57800E+000	10	...........
	29	0.4	8.17649E-001	5.99330E-003	0.00000E+000	4.90042E-003	3.59960E-001	-1.12258E+000	3.57800E+000	10	...........
	30	0.413333	8.23924E-001	5.99407E-003	0.00000E+000	4.93866E-003	3.59960E-001	-1.12400E+000	3.57800E+000	10	...........
	31	0.426667	8.30150E-001	5.99438E-003	0.00000E+000	4.97623E-003	3.59960E-001	-1.11553E+000	3.57800E+000	10	...........
	32	0.44	8.36367E-001	5.99098E-003	0.00000E+000	5.01066E-003	3.59960E-001	-1.12259E+000	3.57800E+000	10	...........
	33	0.453333	8.42633E-001	5.99508E-003	0.00000E+000	5.05166E-003	3.59960E-001	-1.12425E+000	3.57800E+000	10	...........
	34	0.466667	8.48864E-001	5.99523E-003	0.00000E+000	5.08914E-003	3.59960E-001	-1.11568E+000	3.57800E+000	10	...........
	35	0.48	8.55010E-001	5.99137E-003	0.00000E+000	5.12268E-003	3.59960E-001	-1.12230E+000	3.57800E+000	10	...........
	36	0.493333	8.61235E-001	5.99623E-003	0.00000E+000	5.16417E-003	3.59960E-001	-1.12364E+000	3.57800E+000	10	...........
	37	0.506667	8.67369E-001	5.99325E-003	0.00000E+000	5.19836E-003	3.59960E-001	-1.11561E+000	3.57800E+000	10	...........
	38	0.52	8.73517E-001	5.99479E-003	0.00000E+000	5.23655E-003	3.59960E-001	-1.12255E+000	3.57800E+000	10	...........
	39	0.533333	8.79627E-001	5.99558E-003	0.00000E+000	5.27387E-003	3.59960E-001	-1.12380E+000	3.57800E+000	10	...........
	40	0.546667	8.85760E-001	5.99657E-003	0.00000E+000	5.31152E-003	3.59960E-001	-1.11524E+000	3.57800E+000	10	...........
	41	0.56	8.91839E-001	5.99449E-003	0.00000E+000	5.34612E-003	3.59960E-001	-1.12201E+000	3.57800E+000	10	...........
	42	0.573333	8.97935E-001	5.99480E-003	0.00000E+000	5.38294E-003	3.59960E-001	-1.12328E+000	3.57800E+000	10	...........
	43	0.586667	9.03988E-001	5.99594E-003	0.00000E+000	5.42026E-003	3.59960E-001	-1.11501E+000	3.57800E+000	10	...........
	44	0.6	9.09998E-001	5.99071E-003	0.00000E+000	5.45154E-003	3.59960E-001	-1.12176E+000	3.57800E+000	10	...........
	45	0.613333	9.15995E-001	5.99236E-003	0.00000E+000	5.48898E-003	3.59960E-001	-1.12296E+000	3.57800E+000	10	...........
	46	0.626667	9.21981E-001	5.99421E-003	0.00000E+000	5.52655E-003	3.59960E-001	-1.11464E+000	3.57800E+000	10	...........
	47	0.64	9.27902E-001	5.99564E-003	0.00000E+000	5.56337E-003	3.59960E-001	-1.12188E+000	3.57928E+000	10	...........
	48	0.653333	9.33786E-001	5.99380E-003	0.00000E+000	5.59693E-003	3.59960E-001	-1.12330E+000	3.57970E+000	10	...........
	49	0.666667	9.39647E-001	5.99180E-003	0.00000E+000	5.63017E-003	3.59960E-001	-1.11481E+000	3.57970E+000	10	...........
	50	0.68	9.45470E-001	5.99116E-003	0.00000E+000	5.66447E-003	3.59960E-001	-1.12166E+000	3.57970E+000	10	...........
	51	0.693333	9.51277E-001	5.99777E-003	0.00000E+000	5.70554E-003	3.59960E-001	-1.12290E+000	3.57970E+000	10	...........
	52	0.706667	9.57004E-001	5.99661E-003	0.00000E+000	5.73878E-003	3.59960E-001	-1.11495E+000	3.57970E+000	10	...........
	53	0.72	9.62660E-001	5.99181E-003	0.00000E+000	5.76808E-003	3.59960E-001	-1.12188E+000	3.57970E+000	10	...........
	54	0.733333	9.68335E-001	5.99842E-003	0.00000E+000	5.80848E-003	3.59960E-001	-1.12288E+000	3.57970E+000	10	...........
	55	0.746667	9.74049E-001	5.99642E-003	0.00000E+000	5.84081E-003	3.59960E-001	-1.11434E+000	3.57970E+000	10	...........
	56	0.76	9.79630E-001	5.99372E-003	0.00000E+000	5.87163E-003	3.59960E-001	-1.12138E+000	3.57970E+000	10	...........
	57	0.773333	9.85173E-001	5.99410E-003	0.00000E+000	5.90523E-003	3.59960E-001	-1.12284E+000	3.57970E+000	10	...........
	58	0.786667	9.90701E-001	5.99405E-003	0.00000E+000	5.93831E-003	3.59960E-001	-1.11482E+000	3.57970E+000	10	...........
	59	0.8	9.96160E-001	5.99274E-003	0.00000E+000	5.96973E-003	3.59960E-001	-1.12173E+000	3.57970E+000	10	...........
	60	0.805	9.99871E-001	5.99209E-003	0.00000E+000	5.99132E-003	3.59960E-001	-1.11117E+000	3.57970E+000	10	...........
STARTTIMEOFFSET	QUANT	661.2398	Start Time Offset (s)

File: CHARGE_#375.DTA
EXPLAIN
TAG	PWR800_CHARGE
TITLE	LABEL	PWR Cyclic Charge Discharge (Cell) - Charge Step	Test &Identifier
DATE	LABEL	22-6-2017	Date
TIME	LABEL	15:50:58	Time
NOTES	NOTES	3	&Notes...
	supercap test cell
	0.6mg
	6M KOH
PSTAT	PSTAT	IFC5000-01520	Potentiostat
CAPACITY	QUANT	1.00000E-003	Capacity (A-hr)
CELLTYPE	SELECTOR	1	&Cell Type
WORKINGCONNECTION	SELECTOR	0	&Working Lead
MAXCHARGETIME	VARIABLEANDUNITS	1.00000E+002	s	1.00000E+002	second(s)	Max &Charge Time
CHARGECURRENT	QUANT	6.00000E-003	&Charge Current (A)
VOLTAGEFINISH	TWOPARAM	F	1.00000E-003	3.60000E+003	&Voltage Finish	 I (A) < 	Max Time(s)
SAMPLETIME	QUANT	1.00000E-002	Sa&mple Period (s)
CHARGESTOPAT1	MULTIPARAM	4	1.00000E+000	Charge Stop At &1	Voltage > Limit	V
CHARGESTOPAT2	MULTIPARAM	0	0.00000E+000	Charge Stop At &2	None	N/A
AESBHCSELECTOR	TOGGLE	F	Save Both Half Cells
IRCOMP	TOGGLE	F	IR &Measure
EOC	QUANT	0	Open Circuit (V)
SEQUENCER	TOGGLE	TRUE	Run as Sequence
PSTATMODEL	IQUANT	53	Pstat Model
PSTATSECTION	LABEL	IFC5000-01520	Pstat Section
PSTATSERIALNO	LABEL	01520	Pstat Serial Number
CTRLMODE	IQUANT	0	Control Mode
ELECTROMETER	IQUANT	1	RE=0 or CS=1
IESTAB	IQUANT	0	I/E Stability
CASPEED	IQUANT	4	Control Amp Speed
CONVENTION	IQUANT	1	Current Convention
ICHRANGE	IQUANT	2	Ich Range
ICHRANGEMODE	TOGGLE	T	Ich Auto Range
ICHOFFSETENABLE	TOGGLE	F	Ich Offset Enable
ICHOFFSET	QUANT	0	Ich Offset (V)
ICHFILTER	IQUANT	1	Ich Filter
VCHRANGE	IQUANT	2	Vch Range
VCHRANGEMODE	TOGGLE	T	Vch Auto Range
VCHOFFSETENABLE	TOGGLE	F	Vch Offset Enable
VCHOFFSET	QUANT	0	Vch Offset (V)
VCHFILTER	IQUANT	1	Vch Filter
IERANGELOWERLIMIT	IQUANT	9	I/E Range Lower Limit
IERANGEMODE	TOGGLE	F	I/E AutoRange
IERANGE	IQUANT	10	I/E Range
ACHSELECT	IQUANT	1	Ach Select
ACHRANGE	IQUANT	2	Ach Range
ACHOFFSETENABLE	TOGGLE	F	Ach Offset Enable
ACHOFFSET	QUANT	0	Ach Offset (V)
ACHFILTER	IQUANT	1	Ach Filter
CABLEID	IQUANT	14	Cable ID
DCCALDATE	LABEL	20-10-2016	DC Calibration Date
ACCALDATE	LABEL	12/3/2015	AC Calibration Date
FRAMEWORKVERSION	QUANT	7.01	Framework Version
INSTRUMENTVERSION	LABEL	4.00	Instrument Version
CURVE	TABLE	61
	Pt	T	Vf	Im	Vu	Pwr	Sig	Ach	Temp	IERange	Over
	#	s	V	A	V	W	V	V	deg C	#	bits
	0	0.013333	6.22881E-001	5.99406E-003	0.00000E+000	3.73359E-003	3.59960E-001	-1.11907E+000	3.57650E+000	10	...........
	1	0.026667	6.31640E-001	5.99673E-003	0.00000E+000	3.78778E-003	3.59960E-001	-1.12273E+000	3.57650E+000	10	...........
	2	0.04	6.39608E-001	5.99658E-003	0.00000E+000	3.83546E-003	3.59960E-001	-1.12886E+000	3.57650E+000	10	...........
	3	0.053333	6.47259E-001	5.99392E-003	0.00000E+000	3.87961E-003	3.59960E-001	-1.11881E+000	3.57650E+000	10	...........
	4	0.066667	6.54583E-001	5.99454E-003	0.00000E+000	3.92392E-003	3.59960E-001	-1.12282E+000	3.57650E+000	10	...........
	5	0.08	6.61716E-001	5.99238E-003	0.00000E+000	3.96526E-003	3.59960E-001	-1.12885E+000	3.57650E+000	10	...........
	6	0.093333	6.68760E-001	5.99016E-003	0.00000E+000	4.00598E-003	3.59960E-001	-1.11847E+000	3.57650E+000	10	...........
	7	0.106667	6.75634E-001	5.99444E-003	0.00000E+000	4.05005E-003	3.59960E-001	-1.12186E+000	3.57650E+000	10	...........
	8	0.12	6.82395E-001	5.99329E-003	0.00000E+000	4.08979E-003	3.59960E-001	-1.12851E+000	3.57650E+000	10	...........
	9	0.133333	6.89099E-001	5.99467E-003	0.00000E+000	4.13092E-003	3.59960E-001	-1.11832E+000	3.57650E+000	10	...........
	10	0.146667	6.95754E-001	5.98886E-003	0.00000E+000	4.16677E-003	3.59960E-001	-1.12217E+000	3.57650E+000	10	...........
	11	0.16	7.02381E-001	5.99372E-003	0.00000E+000	4.20988E-003	3.59960E-001	-1.12819E+000	3.57650E+000	10	...........
	12	0.173333	7.08945E-001	5.99489E-003	0.00000E+000	4.25005E-003	3.59960E-001	-1.11815E+000	3.57650E+000	10	...........
	13	0.186667	7.15511E-001	5.99431E-003	0.00000E+000	4.28900E-003	3.59960E-001	-1.12247E+000	3.57650E+000	10	...........
	14	0.2	7.22093E-001	5.99048E-003	0.00000E+000	4.32568E-003	3.59960E-001	-1.12826E+000	3.57650E+000	10	...........
	15	0.213333	7.28531E-001	5.99035E-003	0.00000E+000	4.36416E-003	3.59960E-001	-1.11826E+000	3.57650E+000	10	...........
	16	0.226667	7.35016E-001	6.00135E-003	0.00000E+000	4.41109E-003	3.59960E-001	-1.12211E+000	3.57650E+000	10	...........
	17	0.24	7.41450E-001	5.99563E-003	0.00000E+000	4.44546E-003	3.59960E-001	-1.12802E+000	3.57658E+000	10	...........
	18	0.253333	7.47896E-001	5.99575E-003	0.00000E+000	4.48420E-003	3.59960E-001	-1.11814E+000	3.57670E+000	10	...........
	19	0.266667	7.54289E-001	5.99892E-003	0.00000E+000	4.52492E-003	3.59960E-001	-1.12239E+000	3.57670E+000	10	...........
	20	0.28	7.60663E-001	5.98978E-003	0.00000E+000	4.55620E-003	3.59960E-001	-1.12795E+000	3.57670E+000	10	...........
	21	0.293333	7.67048E-001	5.99522E-003	0.00000E+000	4.59862E-003	3.59960E-001	-1.11776E+000	3.57670E+000	10	...........
	22	0.306667	7.73406E-001	5.99407E-003	0.00000E+000	4.63585E-003	3.59960E-001	-1.12192E+000	3.57670E+000	10	...........
	23	0.32	7.79750E-001	5.99762E-003	0.00000E+000	4.67664E-003	3.59960E-001	-1.12808E+000	3.57670E+000	10	...........
	24	0.333333	7.86086E-001	5.99491E-003	0.00000E+000	4.71251E-003	3.59960E-001	-1.11808E+000	3.57670E+000	10	...........
	25	0.346667	7.92423E-001	5.99109E-003	0.00000E+000	4.74748E-003	3.59960E-001	-1.12198E+000	3.57670E+000	10	...........
	26	0.36	7.98778E-001	5.99625E-003	0.00000E+000	4.78968E-003	3.59960E-001	-1.12766E+000	3.57670E+000	10	...........
	27	0.373333	8.05074E-001	5.99439E-003	0.00000E+000	4.82593E-003	3.59960E-001	-1.11799E+000	3.57670E+000	10	...........
	28	0.386667	8.11379E-001	5.99240E-003	0.00000E+000	4.86211E-003	3.59960E-001	-1.12222E+000	3.57670E+000	10	...........
	29	0.4	8.17663E-001	5.99303E-003	0.00000E+000	4.90028E-003	3.59960E-001	-1.12795E+000	3.57670E+000	10	...........
	30	0.413333	8.23934E-001	5.99441E-003	0.00000E+000	4.93899E-003	3.59960E-001	-1.11775E+000	3.57670E+000	10	...........
	31	0.426667	8.30169E-001	5.99093E-003	0.00000E+000	4.97349E-003	3.59960E-001	-1.12182E+000	3.57670E+000	10	...........
	32	0.44	8.36367E-001	5.99054E-003	0.00000E+000	5.01029E-003	3.59960E-001	-1.12715E+000	3.57670E+000	10	...........
	33	0.453333	8.42622E-001	5.99646E-003	0.00000E+000	5.05275E-003	3.59960E-001	-1.11758E+000	3.57670E+000	10	...........
	34	0.466667	8.48848E-001	5.99603E-003	0.00000E+000	5.08972E-003	3.59960E-001	-1.12179E+000	3.57670E+000	10	...........
	35	0.48	8.55017E-001	5.99496E-003	0.00000E+000	5.12579E-003	3.59960E-001	-1.12732E+000	3.57670E+000	10	...........
	36	0.493333	8.61215E-001	5.99439E-003	0.00000E+000	5.16246E-003	3.59960E-001	-1.11732E+000	3.57670E+000	10	...........
	37	0.506667	8.67386E-001	5.99559E-003	0.00000E+000	5.20049E-003	3.59960E-001	-1.12166E+000	3.57670E+000	10	...........
	38	0.52	8.73563E-001	5.98848E-003	0.00000E+000	5.23132E-003	3.59960E-001	-1.12710E+000	3.57670E+000	10	...........
	39	0.533333	8.79703E-001	5.99599E-003	0.00000E+000	5.27469E-003	3.59960E-001	-1.11743E+000	3.57670E+000	10	...........
	40	0.546667	8.85786E-001	5.99394E-003	0.00000E+000	5.30934E-003	3.59960E-001	-1.12170E+000	3.57670E+000	10	...........
	41	0.56	8.91877E-001	5.99625E-003	0.00000E+000	5.34792E-003	3.59960E-001	-1.12686E+000	3.57670E+000	10	...........
	42	0.573333	8.97964E-001	5.99619E-003	0.00000E+000	5.38436E-003	3.59960E-001	-1.11721E+000	3.57670E+000	10	...........
	43	0.586667	9.03966E-001	5.98825E-003	0.00000E+000	5.41318E-003	3.59960E-001	-1.12176E+000	3.57670E+000	10	...........
	44	0.6	9.10001E-001	5.99195E-003	0.00000E+000	5.45267E-003	3.59960E-001	-1.12698E+000	3.57670E+000	10	...........
	45	0.613333	9.15992E-001	5.99526E-003	0.00000E+000	5.49161E-003	3.59960E-001	-1.11709E+000	3.57670E+000	10	...........
	46	0.626667	9.21996E-001	5.99077E-003	0.00000E+000	5.52347E-003	3.59960E-001	-1.12145E+000	3.57670E+000	10	...........
	47	0.64	9.27949E-001	5.99284E-003	0.00000E+000	5.56105E-003	3.59960E-001	-1.12706E+000	3.57670E+000	10	...........
	48	0.653333	9.33823E-001	5.99544E-003	0.00000E+000	5.59868E-003	3.59960E-001	-1.11748E+000	3.57670E+000	10	...........
	49	0.666667	9.39670E-001	5.99162E-003	0.00000E+000	5.63015E-003	3.59960E-001	-1.12200E+000	3.57670E+000	10	...........
	50	0.68	9.45500E-001	5.99265E-003	0.00000E+000	5.66606E-003	3.59960E-001	-1.12680E+000	3.57670E+000	10	...........
	51	0.693333	9.51263E-001	5.99133E-003	0.00000E+000	5.69933E-003	3.59960E-001	-1.11698E+000	3.57670E+000	10	...........
	52	0.706667	9.57039E-001	5.99215E-003	0.00000E+000	5.73473E-003	3.59960E-001	-1.12165E+000	3.57670E+000	10	...........
	53	0.72	9.62736E-001	5.99237E-003	0.00000E+000	5.76908E-003	3.59960E-001	-1.12696E+000	3.57670E+000	10	...........
	54	0.733333	9.68395E-001	5.99484E-003	0.00000E+000	5.80538E-003	3.59960E-001	-1.11714E+000	3.57670E+000	10	...........
	55	0.746667	9.74071E-001	5.99199E-003	0.00000E+000	5.83662E-003	3.59960E-001	-1.12146E+000	3.57670E+000	10	...........
	56	0.76	9.79669E-001	5.99670E-003	0.00000E+000	5.87478E-003	3.59960E-001	-1.12634E+000	3.57670E+000	10	...........
	57	0.773333	9.85215E-001	5.99513E-003	0.00000E+000	5.90649E-003	3.59960E-001	-1.11659E+000	3.57670E+000	10	...........
	58	0.786667	9.90727E-001	5.99687E-003	0.00000E+000	5.94126E-003	3.59960E-001	-1.12154E+000	3.57670E+000	10	...........
	59	0.8	9.96153E-001	5.99628E-003	0.00000E+000	5.97321E-003	3.59960E-001	-1.12657E+000	3.57670E+000	10	...........
	60	0.805	9.99864E-001	5.99093E-003	0.00000E+000	5.99011E-003	3.59960E-001	-1.11483E+000	3.57670E+000	10	...........
STARTTIMEOFFSET	QUANT	662.8415	Start Time Offset (s)