Folder: Tesis/Data/CV_CRGO300517_1/PWRCCD_CRGO300517_1/CHARGE_DISCHARGE (part 44)

File: CHARGE_#87.DTA
EXPLAIN
TAG	PWR800_CHARGE
TITLE	LABEL	PWR Cyclic Charge Discharge (Cell) - Charge Step	Test &Identifier
DATE	LABEL	22-6-2017	Date
TIME	LABEL	15:38:56	Time
NOTES	NOTES	3	&Notes...
	supercap test cell
	0.6mg
	6M KOH
PSTAT	PSTAT	IFC5000-01520	Potentiostat
CAPACITY	QUANT	1.00000E-003	Capacity (A-hr)
CELLTYPE	SELECTOR	1	&Cell Type
WORKINGCONNECTION	SELECTOR	0	&Working Lead
MAXCHARGETIME	VARIABLEANDUNITS	1.00000E+002	s	1.00000E+002	second(s)	Max &Charge Time
CHARGECURRENT	QUANT	6.00000E-003	&Charge Current (A)
VOLTAGEFINISH	TWOPARAM	F	1.00000E-003	3.60000E+003	&Voltage Finish	 I (A) < 	Max Time(s)
SAMPLETIME	QUANT	1.00000E-002	Sa&mple Period (s)
CHARGESTOPAT1	MULTIPARAM	4	1.00000E+000	Charge Stop At &1	Voltage > Limit	V
CHARGESTOPAT2	MULTIPARAM	0	0.00000E+000	Charge Stop At &2	None	N/A
AESBHCSELECTOR	TOGGLE	F	Save Both Half Cells
IRCOMP	TOGGLE	F	IR &Measure
EOC	QUANT	0	Open Circuit (V)
SEQUENCER	TOGGLE	TRUE	Run as Sequence
PSTATMODEL	IQUANT	53	Pstat Model
PSTATSECTION	LABEL	IFC5000-01520	Pstat Section
PSTATSERIALNO	LABEL	01520	Pstat Serial Number
CTRLMODE	IQUANT	0	Control Mode
ELECTROMETER	IQUANT	1	RE=0 or CS=1
IESTAB	IQUANT	0	I/E Stability
CASPEED	IQUANT	4	Control Amp Speed
CONVENTION	IQUANT	1	Current Convention
ICHRANGE	IQUANT	2	Ich Range
ICHRANGEMODE	TOGGLE	T	Ich Auto Range
ICHOFFSETENABLE	TOGGLE	F	Ich Offset Enable
ICHOFFSET	QUANT	0	Ich Offset (V)
ICHFILTER	IQUANT	1	Ich Filter
VCHRANGE	IQUANT	2	Vch Range
VCHRANGEMODE	TOGGLE	T	Vch Auto Range
VCHOFFSETENABLE	TOGGLE	F	Vch Offset Enable
VCHOFFSET	QUANT	0	Vch Offset (V)
VCHFILTER	IQUANT	1	Vch Filter
IERANGELOWERLIMIT	IQUANT	9	I/E Range Lower Limit
IERANGEMODE	TOGGLE	F	I/E AutoRange
IERANGE	IQUANT	10	I/E Range
ACHSELECT	IQUANT	1	Ach Select
ACHRANGE	IQUANT	2	Ach Range
ACHOFFSETENABLE	TOGGLE	F	Ach Offset Enable
ACHOFFSET	QUANT	0	Ach Offset (V)
ACHFILTER	IQUANT	1	Ach Filter
CABLEID	IQUANT	14	Cable ID
DCCALDATE	LABEL	20-10-2016	DC Calibration Date
ACCALDATE	LABEL	12/3/2015	AC Calibration Date
FRAMEWORKVERSION	QUANT	7.01	Framework Version
INSTRUMENTVERSION	LABEL	4.00	Instrument Version
CURVE	TABLE	71
	Pt	T	Vf	Im	Vu	Pwr	Sig	Ach	Temp	IERange	Over
	#	s	V	A	V	W	V	V	deg C	#	bits
	0	0.013333	5.85688E-001	5.99173E-003	0.00000E+000	3.50928E-003	3.59960E-001	-1.05832E+000	3.57770E+000	10	...........
	1	0.026667	5.93896E-001	5.99389E-003	0.00000E+000	3.55975E-003	3.59960E-001	-1.06609E+000	3.57770E+000	10	...........
	2	0.04	6.01442E-001	5.99548E-003	0.00000E+000	3.60593E-003	3.59960E-001	-1.05500E+000	3.57768E+000	10	...........
	3	0.053333	6.08592E-001	5.99031E-003	0.00000E+000	3.64565E-003	3.59960E-001	-1.05842E+000	3.57740E+000	10	...........
	4	0.066667	6.15507E-001	5.99418E-003	0.00000E+000	3.68946E-003	3.59960E-001	-1.06629E+000	3.57740E+000	10	...........
	5	0.08	6.22191E-001	5.99222E-003	0.00000E+000	3.72830E-003	3.59960E-001	-1.05477E+000	3.57740E+000	10	...........
	6	0.093333	6.28693E-001	5.99184E-003	0.00000E+000	3.76703E-003	3.59960E-001	-1.05826E+000	3.57740E+000	10	...........
	7	0.106667	6.35102E-001	5.99681E-003	0.00000E+000	3.80858E-003	3.59960E-001	-1.06612E+000	3.57740E+000	10	...........
	8	0.12	6.41463E-001	5.99427E-003	0.00000E+000	3.84510E-003	3.59960E-001	-1.05513E+000	3.57740E+000	10	...........
	9	0.133333	6.47732E-001	5.99163E-003	0.00000E+000	3.88097E-003	3.59960E-001	-1.05863E+000	3.57740E+000	10	...........
	10	0.146667	6.53921E-001	5.99668E-003	0.00000E+000	3.92136E-003	3.59960E-001	-1.06597E+000	3.57740E+000	10	...........
	11	0.16	6.60107E-001	5.99021E-003	0.00000E+000	3.95418E-003	3.59960E-001	-1.05471E+000	3.57740E+000	10	...........
	12	0.173333	6.66232E-001	5.99260E-003	0.00000E+000	3.99246E-003	3.59960E-001	-1.05835E+000	3.57740E+000	10	...........
	13	0.186667	6.72318E-001	5.99394E-003	0.00000E+000	4.02983E-003	3.59960E-001	-1.06590E+000	3.57740E+000	10	...........
	14	0.2	6.78373E-001	5.99221E-003	0.00000E+000	4.06495E-003	3.59960E-001	-1.05479E+000	3.57740E+000	10	...........
	15	0.213333	6.84382E-001	5.99446E-003	0.00000E+000	4.10250E-003	3.59960E-001	-1.05803E+000	3.57740E+000	10	...........
	16	0.226667	6.90368E-001	5.99529E-003	0.00000E+000	4.13896E-003	3.59960E-001	-1.06537E+000	3.57740E+000	10	...........
	17	0.24	6.96350E-001	5.99472E-003	0.00000E+000	4.17443E-003	3.59960E-001	-1.05432E+000	3.57740E+000	10	...........
	18	0.253333	7.02295E-001	5.99515E-003	0.00000E+000	4.21036E-003	3.59960E-001	-1.05814E+000	3.57740E+000	10	...........
	19	0.266667	7.08187E-001	5.99553E-003	0.00000E+000	4.24596E-003	3.59960E-001	-1.06555E+000	3.57740E+000	10	...........
	20	0.28	7.14121E-001	5.99027E-003	0.00000E+000	4.27777E-003	3.59960E-001	-1.05410E+000	3.57740E+000	10	...........
	21	0.293333	7.20105E-001	5.99438E-003	0.00000E+000	4.31658E-003	3.59960E-001	-1.05806E+000	3.57740E+000	10	...........
	22	0.306667	7.26001E-001	5.99731E-003	0.00000E+000	4.35405E-003	3.59960E-001	-1.06518E+000	3.57740E+000	10	...........
	23	0.32	7.31911E-001	5.99325E-003	0.00000E+000	4.38653E-003	3.59960E-001	-1.05401E+000	3.57740E+000	10	...........
	24	0.333333	7.37768E-001	5.99362E-003	0.00000E+000	4.42191E-003	3.59960E-001	-1.05828E+000	3.57740E+000	10	...........
	25	0.346667	7.43672E-001	5.99240E-003	0.00000E+000	4.45638E-003	3.59960E-001	-1.06495E+000	3.57740E+000	10	...........
	26	0.36	7.49561E-001	5.99668E-003	0.00000E+000	4.49488E-003	3.59960E-001	-1.05388E+000	3.57740E+000	10	...........
	27	0.373333	7.55485E-001	5.99379E-003	0.00000E+000	4.52822E-003	3.59960E-001	-1.05815E+000	3.57740E+000	10	...........
	28	0.386667	7.61323E-001	5.99248E-003	0.00000E+000	4.56221E-003	3.59960E-001	-1.06498E+000	3.57740E+000	10	...........
	29	0.4	7.67187E-001	5.99762E-003	0.00000E+000	4.60129E-003	3.59960E-001	-1.05449E+000	3.57740E+000	10	...........
	30	0.413333	7.73060E-001	5.99409E-003	0.00000E+000	4.63380E-003	3.59960E-001	-1.05822E+000	3.57740E+000	10	...........
	31	0.426667	7.78937E-001	5.99210E-003	0.00000E+000	4.66747E-003	3.59960E-001	-1.06495E+000	3.57740E+000	10	...........
	32	0.44	7.84836E-001	5.99234E-003	0.00000E+000	4.70300E-003	3.59960E-001	-1.05411E+000	3.57740E+000	10	...........
	33	0.453333	7.90675E-001	5.99527E-003	0.00000E+000	4.74031E-003	3.59960E-001	-1.05882E+000	3.57740E+000	10	...........
	34	0.466667	7.96561E-001	5.99237E-003	0.00000E+000	4.77329E-003	3.59960E-001	-1.06500E+000	3.57740E+000	10	...........
	35	0.48	8.02396E-001	5.99118E-003	0.00000E+000	4.80730E-003	3.59960E-001	-1.05425E+000	3.57740E+000	10	...........
	36	0.493333	8.08258E-001	5.99679E-003	0.00000E+000	4.84695E-003	3.59960E-001	-1.05863E+000	3.57740E+000	10	...........
	37	0.506667	8.14108E-001	5.99676E-003	0.00000E+000	4.88201E-003	3.59960E-001	-1.06509E+000	3.57740E+000	10	...........
	38	0.52	8.19972E-001	5.99296E-003	0.00000E+000	4.91406E-003	3.59960E-001	-1.05431E+000	3.57740E+000	10	...........
	39	0.533333	8.25826E-001	5.99512E-003	0.00000E+000	4.95092E-003	3.59960E-001	-1.05830E+000	3.57740E+000	10	...........
	40	0.546667	8.31664E-001	5.99333E-003	0.00000E+000	4.98444E-003	3.59960E-001	-1.06451E+000	3.57740E+000	10	...........
	41	0.56	8.37520E-001	5.99453E-003	0.00000E+000	5.02054E-003	3.59960E-001	-1.05363E+000	3.57740E+000	10	...........
	42	0.573333	8.43336E-001	5.99633E-003	0.00000E+000	5.05692E-003	3.59960E-001	-1.05832E+000	3.57740E+000	10	...........
	43	0.586667	8.49211E-001	5.99456E-003	0.00000E+000	5.09065E-003	3.59960E-001	-1.06452E+000	3.57740E+000	10	...........
	44	0.6	8.54970E-001	5.98845E-003	0.00000E+000	5.11995E-003	3.59960E-001	-1.05371E+000	3.57740E+000	10	...........
	45	0.613333	8.60755E-001	5.99013E-003	0.00000E+000	5.15603E-003	3.59960E-001	-1.05841E+000	3.57740E+000	10	...........
	46	0.626667	8.66568E-001	5.99418E-003	0.00000E+000	5.19436E-003	3.59960E-001	-1.06394E+000	3.57740E+000	10	...........
	47	0.64	8.72377E-001	5.99452E-003	0.00000E+000	5.22948E-003	3.59960E-001	-1.05369E+000	3.57740E+000	10	...........
	48	0.653333	8.78190E-001	5.99251E-003	0.00000E+000	5.26256E-003	3.59960E-001	-1.05858E+000	3.57740E+000	10	...........
	49	0.666667	8.83959E-001	5.99098E-003	0.00000E+000	5.29577E-003	3.59960E-001	-1.06411E+000	3.57740E+000	10	...........
	50	0.68	8.89698E-001	5.99269E-003	0.00000E+000	5.33168E-003	3.59960E-001	-1.05352E+000	3.57740E+000	10	...........
	51	0.693333	8.95433E-001	5.99288E-003	0.00000E+000	5.36622E-003	3.59960E-001	-1.05831E+000	3.57740E+000	10	...........
	52	0.706667	9.01140E-001	5.99263E-003	0.00000E+000	5.40020E-003	3.59960E-001	-1.06376E+000	3.57740E+000	10	...........
	53	0.72	9.06820E-001	5.99496E-003	0.00000E+000	5.43635E-003	3.59960E-001	-1.05378E+000	3.57740E+000	10	...........
	54	0.733333	9.12528E-001	5.99168E-003	0.00000E+000	5.46758E-003	3.59960E-001	-1.05861E+000	3.57740E+000	10	...........
	55	0.746667	9.18227E-001	5.99032E-003	0.00000E+000	5.50047E-003	3.59960E-001	-1.06398E+000	3.57740E+000	10	...........
	56	0.76	9.24005E-001	5.99355E-003	0.00000E+000	5.53807E-003	3.59960E-001	-1.05361E+000	3.57740E+000	10	...........
	57	0.773333	9.29662E-001	5.98797E-003	0.00000E+000	5.56679E-003	3.59960E-001	-1.05864E+000	3.57740E+000	10	...........
	58	0.786667	9.35300E-001	5.99550E-003	0.00000E+000	5.60759E-003	3.59960E-001	-1.06407E+000	3.57740E+000	10	...........
	59	0.8	9.40895E-001	5.99560E-003	0.00000E+000	5.64122E-003	3.59960E-001	-1.05389E+000	3.57740E+000	10	...........
	60	0.813333	9.46550E-001	5.99733E-003	0.00000E+000	5.67677E-003	3.59960E-001	-1.05864E+000	3.57740E+000	10	...........
	61	0.826667	9.52094E-001	5.99107E-003	0.00000E+000	5.70406E-003	3.59960E-001	-1.06363E+000	3.57740E+000	10	...........
	62	0.84	9.57626E-001	5.99447E-003	0.00000E+000	5.74046E-003	3.59960E-001	-1.05356E+000	3.57740E+000	10	...........
	63	0.853333	9.63153E-001	5.99299E-003	0.00000E+000	5.77216E-003	3.59960E-001	-1.05850E+000	3.57740E+000	10	...........
	64	0.866667	9.68619E-001	5.99335E-003	0.00000E+000	5.80527E-003	3.59960E-001	-1.06336E+000	3.57740E+000	10	...........
	65	0.88	9.74124E-001	5.99361E-003	0.00000E+000	5.83853E-003	3.59960E-001	-1.05316E+000	3.57740E+000	10	...........
	66	0.893333	9.79555E-001	5.99497E-003	0.00000E+000	5.87240E-003	3.59960E-001	-1.05827E+000	3.57740E+000	10	...........
	67	0.906667	9.84905E-001	5.99556E-003	0.00000E+000	5.90506E-003	3.59960E-001	-1.06300E+000	3.57740E+000	10	...........
	68	0.92	9.90267E-001	5.99297E-003	0.00000E+000	5.93464E-003	3.59960E-001	-1.05334E+000	3.57740E+000	10	...........
	69	0.933333	9.95601E-001	5.99517E-003	0.00000E+000	5.96880E-003	3.59960E-001	-1.05875E+000	3.57740E+000	10	...........
	70	0.94	9.99611E-001	5.99540E-003	0.00000E+000	5.99307E-003	3.59960E-001	-1.05758E+000	3.57740E+000	10	...........
STARTTIMEOFFSET	QUANT	171.08	Start Time Offset (s)

File: CHARGE_#88.DTA
EXPLAIN
TAG	PWR800_CHARGE
TITLE	LABEL	PWR Cyclic Charge Discharge (Cell) - Charge Step	Test &Identifier
DATE	LABEL	22-6-2017	Date
TIME	LABEL	15:38:58	Time
NOTES	NOTES	3	&Notes...
	supercap test cell
	0.6mg
	6M KOH
PSTAT	PSTAT	IFC5000-01520	Potentiostat
CAPACITY	QUANT	1.00000E-003	Capacity (A-hr)
CELLTYPE	SELECTOR	1	&Cell Type
WORKINGCONNECTION	SELECTOR	0	&Working Lead
MAXCHARGETIME	VARIABLEANDUNITS	1.00000E+002	s	1.00000E+002	second(s)	Max &Charge Time
CHARGECURRENT	QUANT	6.00000E-003	&Charge Current (A)
VOLTAGEFINISH	TWOPARAM	F	1.00000E-003	3.60000E+003	&Voltage Finish	 I (A) < 	Max Time(s)
SAMPLETIME	QUANT	1.00000E-002	Sa&mple Period (s)
CHARGESTOPAT1	MULTIPARAM	4	1.00000E+000	Charge Stop At &1	Voltage > Limit	V
CHARGESTOPAT2	MULTIPARAM	0	0.00000E+000	Charge Stop At &2	None	N/A
AESBHCSELECTOR	TOGGLE	F	Save Both Half Cells
IRCOMP	TOGGLE	F	IR &Measure
EOC	QUANT	0	Open Circuit (V)
SEQUENCER	TOGGLE	TRUE	Run as Sequence
PSTATMODEL	IQUANT	53	Pstat Model
PSTATSECTION	LABEL	IFC5000-01520	Pstat Section
PSTATSERIALNO	LABEL	01520	Pstat Serial Number
CTRLMODE	IQUANT	0	Control Mode
ELECTROMETER	IQUANT	1	RE=0 or CS=1
IESTAB	IQUANT	0	I/E Stability
CASPEED	IQUANT	4	Control Amp Speed
CONVENTION	IQUANT	1	Current Convention
ICHRANGE	IQUANT	2	Ich Range
ICHRANGEMODE	TOGGLE	T	Ich Auto Range
ICHOFFSETENABLE	TOGGLE	F	Ich Offset Enable
ICHOFFSET	QUANT	0	Ich Offset (V)
ICHFILTER	IQUANT	1	Ich Filter
VCHRANGE	IQUANT	2	Vch Range
VCHRANGEMODE	TOGGLE	T	Vch Auto Range
VCHOFFSETENABLE	TOGGLE	F	Vch Offset Enable
VCHOFFSET	QUANT	0	Vch Offset (V)
VCHFILTER	IQUANT	1	Vch Filter
IERANGELOWERLIMIT	IQUANT	9	I/E Range Lower Limit
IERANGEMODE	TOGGLE	F	I/E AutoRange
IERANGE	IQUANT	10	I/E Range
ACHSELECT	IQUANT	1	Ach Select
ACHRANGE	IQUANT	2	Ach Range
ACHOFFSETENABLE	TOGGLE	F	Ach Offset Enable
ACHOFFSET	QUANT	0	Ach Offset (V)
ACHFILTER	IQUANT	1	Ach Filter
CABLEID	IQUANT	14	Cable ID
DCCALDATE	LABEL	20-10-2016	DC Calibration Date
ACCALDATE	LABEL	12/3/2015	AC Calibration Date
FRAMEWORKVERSION	QUANT	7.01	Framework Version
INSTRUMENTVERSION	LABEL	4.00	Instrument Version
CURVE	TABLE	71
	Pt	T	Vf	Im	Vu	Pwr	Sig	Ach	Temp	IERange	Over
	#	s	V	A	V	W	V	V	deg C	#	bits
	0	0.013333	5.86256E-001	5.99104E-003	0.00000E+000	3.51228E-003	3.59960E-001	-1.06326E+000	3.57840E+000	10	...........
	1	0.026667	5.94480E-001	5.99448E-003	0.00000E+000	3.56360E-003	3.59960E-001	-1.06352E+000	3.57840E+000	10	...........
	2	0.04	6.02004E-001	5.99292E-003	0.00000E+000	3.60776E-003	3.59960E-001	-1.05506E+000	3.57840E+000	10	...........
	3	0.053333	6.09158E-001	5.99592E-003	0.00000E+000	3.65246E-003	3.59960E-001	-1.06341E+000	3.57840E+000	10	...........
	4	0.066667	6.16056E-001	5.99397E-003	0.00000E+000	3.69262E-003	3.59960E-001	-1.06337E+000	3.57840E+000	10	...........
	5	0.08	6.22766E-001	5.99008E-003	0.00000E+000	3.73042E-003	3.59960E-001	-1.05505E+000	3.57840E+000	10	...........
	6	0.093333	6.29311E-001	5.99572E-003	0.00000E+000	3.77317E-003	3.59960E-001	-1.06323E+000	3.57840E+000	10	...........
	7	0.106667	6.35706E-001	5.99396E-003	0.00000E+000	3.81039E-003	3.59960E-001	-1.06284E+000	3.57840E+000	10	...........
	8	0.12	6.42052E-001	5.99075E-003	0.00000E+000	3.84637E-003	3.59960E-001	-1.05453E+000	3.57840E+000	10	...........
	9	0.133333	6.48304E-001	5.99899E-003	0.00000E+000	3.88917E-003	3.59960E-001	-1.06297E+000	3.57840E+000	10	...........
	10	0.146667	6.54544E-001	5.99184E-003	0.00000E+000	3.92192E-003	3.59960E-001	-1.06239E+000	3.57840E+000	10	...........
	11	0.16	6.60675E-001	5.99538E-003	0.00000E+000	3.96099E-003	3.59960E-001	-1.05422E+000	3.57840E+000	10	...........
	12	0.173333	6.66816E-001	5.99431E-003	0.00000E+000	3.99710E-003	3.59960E-001	-1.06288E+000	3.57840E+000	10	...........
	13	0.186667	6.72878E-001	5.99247E-003	0.00000E+000	4.03220E-003	3.59960E-001	-1.06247E+000	3.57840E+000	10	...........
	14	0.2	6.78927E-001	5.99700E-003	0.00000E+000	4.07153E-003	3.59960E-001	-1.05452E+000	3.57840E+000	10	...........
	15	0.213333	6.84906E-001	5.99438E-003	0.00000E+000	4.10559E-003	3.59960E-001	-1.06298E+000	3.57840E+000	10	...........
	16	0.226667	6.90920E-001	5.99207E-003	0.00000E+000	4.14004E-003	3.59960E-001	-1.06210E+000	3.57840E+000	10	...........
	17	0.24	6.96893E-001	5.99491E-003	0.00000E+000	4.17781E-003	3.59960E-001	-1.05465E+000	3.57840E+000	10	...........
	18	0.253333	7.02904E-001	5.99313E-003	0.00000E+000	4.21260E-003	3.59960E-001	-1.06303E+000	3.57840E+000	10	...........
	19	0.266667	7.08838E-001	5.99258E-003	0.00000E+000	4.24777E-003	3.59960E-001	-1.06221E+000	3.57840E+000	10	...........
	20	0.28	7.14759E-001	5.99425E-003	0.00000E+000	4.28444E-003	3.59960E-001	-1.05446E+000	3.57840E+000	10	...........
	21	0.293333	7.20755E-001	5.99529E-003	0.00000E+000	4.32113E-003	3.59960E-001	-1.06318E+000	3.57840E+000	10	...........
	22	0.306667	7.26645E-001	5.99444E-003	0.00000E+000	4.35583E-003	3.59960E-001	-1.06185E+000	3.57840E+000	10	...........
	23	0.32	7.32564E-001	5.99207E-003	0.00000E+000	4.38957E-003	3.59960E-001	-1.05456E+000	3.57840E+000	10	...........
	24	0.333333	7.38449E-001	5.99400E-003	0.00000E+000	4.42626E-003	3.59960E-001	-1.06340E+000	3.57840E+000	10	...........
	25	0.346667	7.44389E-001	5.99164E-003	0.00000E+000	4.46012E-003	3.59960E-001	-1.06200E+000	3.57840E+000	10	...........
	26	0.36	7.50272E-001	5.99096E-003	0.00000E+000	4.49485E-003	3.59960E-001	-1.05450E+000	3.57840E+000	10	...........
	27	0.373333	7.56154E-001	5.99254E-003	0.00000E+000	4.53128E-003	3.59960E-001	-1.06340E+000	3.57840E+000	10	...........
	28	0.386667	7.62026E-001	5.99336E-003	0.00000E+000	4.56710E-003	3.59960E-001	-1.06183E+000	3.57809E+000	10	...........
	29	0.4	7.67914E-001	5.99181E-003	0.00000E+000	4.60120E-003	3.59960E-001	-1.05464E+000	3.57790E+000	10	...........
	30	0.413333	7.73793E-001	5.99446E-003	0.00000E+000	4.63847E-003	3.59960E-001	-1.06352E+000	3.57790E+000	10	...........
	31	0.426667	7.79676E-001	5.99347E-003	0.00000E+000	4.67297E-003	3.59960E-001	-1.06144E+000	3.57790E+000	10	...........
	32	0.44	7.85537E-001	5.99288E-003	0.00000E+000	4.70763E-003	3.59960E-001	-1.05400E+000	3.57790E+000	10	...........
	33	0.453333	7.91414E-001	5.99607E-003	0.00000E+000	4.74537E-003	3.59960E-001	-1.06334E+000	3.57790E+000	10	...........
	34	0.466667	7.97320E-001	5.99262E-003	0.00000E+000	4.77804E-003	3.59960E-001	-1.06112E+000	3.57790E+000	10	...........
	35	0.48	8.03155E-001	5.99345E-003	0.00000E+000	4.81367E-003	3.59960E-001	-1.05408E+000	3.57790E+000	10	...........
	36	0.493333	8.08970E-001	5.99462E-003	0.00000E+000	4.84946E-003	3.59960E-001	-1.06307E+000	3.57790E+000	10	...........
	37	0.506667	8.14846E-001	5.99380E-003	0.00000E+000	4.88402E-003	3.59960E-001	-1.06083E+000	3.57790E+000	10	...........
	38	0.52	8.20700E-001	5.99546E-003	0.00000E+000	4.92048E-003	3.59960E-001	-1.05417E+000	3.57790E+000	10	...........
	39	0.533333	8.26544E-001	5.99560E-003	0.00000E+000	4.95562E-003	3.59960E-001	-1.06358E+000	3.57790E+000	10	...........
	40	0.546667	8.32343E-001	5.99416E-003	0.00000E+000	4.98920E-003	3.59960E-001	-1.06086E+000	3.57790E+000	10	...........
	41	0.56	8.38170E-001	5.99632E-003	0.00000E+000	5.02593E-003	3.59960E-001	-1.05398E+000	3.57790E+000	10	...........
	42	0.573333	8.44023E-001	5.99469E-003	0.00000E+000	5.05965E-003	3.59960E-001	-1.06334E+000	3.57790E+000	10	...........
	43	0.586667	8.49845E-001	5.99475E-003	0.00000E+000	5.09461E-003	3.59960E-001	-1.06068E+000	3.57790E+000	10	...........
	44	0.6	8.55642E-001	5.99444E-003	0.00000E+000	5.12909E-003	3.59960E-001	-1.05403E+000	3.57790E+000	10	...........
	45	0.613333	8.61433E-001	5.99163E-003	0.00000E+000	5.16139E-003	3.59960E-001	-1.06347E+000	3.57790E+000	10	...........
	46	0.626667	8.67237E-001	5.99161E-003	0.00000E+000	5.19615E-003	3.59960E-001	-1.06043E+000	3.57790E+000	10	...........
	47	0.64	8.73072E-001	5.99294E-003	0.00000E+000	5.23226E-003	3.59960E-001	-1.05371E+000	3.57790E+000	10	...........
	48	0.653333	8.78852E-001	5.99447E-003	0.00000E+000	5.26825E-003	3.59960E-001	-1.06367E+000	3.57790E+000	10	...........
	49	0.666667	8.84644E-001	5.99417E-003	0.00000E+000	5.30270E-003	3.59960E-001	-1.06051E+000	3.57790E+000	10	...........
	50	0.68	8.90397E-001	5.99702E-003	0.00000E+000	5.33973E-003	3.59960E-001	-1.05418E+000	3.57790E+000	10	...........
	51	0.693333	8.96142E-001	5.99252E-003	0.00000E+000	5.37015E-003	3.59960E-001	-1.06383E+000	3.57790E+000	10	...........
	52	0.706667	9.01880E-001	5.99061E-003	0.00000E+000	5.40281E-003	3.59960E-001	-1.06046E+000	3.57790E+000	10	...........
	53	0.72	9.07605E-001	5.99659E-003	0.00000E+000	5.44253E-003	3.59960E-001	-1.05414E+000	3.57790E+000	10	...........
	54	0.733333	9.13316E-001	5.99492E-003	0.00000E+000	5.47525E-003	3.59960E-001	-1.06401E+000	3.57790E+000	10	...........
	55	0.746667	9.19017E-001	5.99425E-003	0.00000E+000	5.50882E-003	3.59960E-001	-1.06004E+000	3.57790E+000	10	...........
	56	0.76	9.24716E-001	5.99205E-003	0.00000E+000	5.54095E-003	3.59960E-001	-1.05350E+000	3.57790E+000	10	...........
	57	0.773333	9.30412E-001	5.99409E-003	0.00000E+000	5.57698E-003	3.59960E-001	-1.06323E+000	3.57790E+000	10	...........
	58	0.786667	9.36013E-001	5.99475E-003	0.00000E+000	5.61116E-003	3.59960E-001	-1.05965E+000	3.57790E+000	10	...........
	59	0.8	9.41594E-001	5.99468E-003	0.00000E+000	5.64455E-003	3.59960E-001	-1.05365E+000	3.57790E+000	10	...........
	60	0.813333	9.47224E-001	5.99296E-003	0.00000E+000	5.67668E-003	3.59960E-001	-1.06359E+000	3.57790E+000	10	...........
	61	0.826667	9.52775E-001	5.99494E-003	0.00000E+000	5.71183E-003	3.59960E-001	-1.05929E+000	3.57790E+000	10	...........
	62	0.84	9.58280E-001	5.99171E-003	0.00000E+000	5.74173E-003	3.59960E-001	-1.05340E+000	3.57790E+000	10	...........
	63	0.853333	9.63769E-001	5.99168E-003	0.00000E+000	5.77460E-003	3.59960E-001	-1.06363E+000	3.57790E+000	10	...........
	64	0.866667	9.69280E-001	5.99254E-003	0.00000E+000	5.80845E-003	3.59960E-001	-1.05950E+000	3.57790E+000	10	...........
	65	0.88	9.74815E-001	5.99813E-003	0.00000E+000	5.84707E-003	3.59960E-001	-1.05348E+000	3.57790E+000	10	...........
	66	0.893333	9.80212E-001	5.99290E-003	0.00000E+000	5.87431E-003	3.59960E-001	-1.06366E+000	3.57790E+000	10	...........
	67	0.906667	9.85594E-001	5.99187E-003	0.00000E+000	5.90555E-003	3.59960E-001	-1.05914E+000	3.57790E+000	10	...........
	68	0.92	9.90928E-001	5.99167E-003	0.00000E+000	5.93732E-003	3.59960E-001	-1.05338E+000	3.57790E+000	10	...........
	69	0.933333	9.96250E-001	5.99687E-003	0.00000E+000	5.97438E-003	3.59960E-001	-1.06388E+000	3.57790E+000	10	...........
	70	0.938333	9.99887E-001	5.98937E-003	0.00000E+000	5.98869E-003	3.59960E-001	-1.04331E+000	3.57790E+000	10	...........
STARTTIMEOFFSET	QUANT	172.9467	Start Time Offset (s)