Folder: Tesis/Data/CV_CRGO300517_1/PWRCCD_CRGO300517_1/CHARGE_DISCHARGE (part 67)

File: CHARGE_#133.DTA
EXPLAIN
TAG	PWR800_CHARGE
TITLE	LABEL	PWR Cyclic Charge Discharge (Cell) - Charge Step	Test &Identifier
DATE	LABEL	22-6-2017	Date
TIME	LABEL	15:40:57	Time
NOTES	NOTES	3	&Notes...
	supercap test cell
	0.6mg
	6M KOH
PSTAT	PSTAT	IFC5000-01520	Potentiostat
CAPACITY	QUANT	1.00000E-003	Capacity (A-hr)
CELLTYPE	SELECTOR	1	&Cell Type
WORKINGCONNECTION	SELECTOR	0	&Working Lead
MAXCHARGETIME	VARIABLEANDUNITS	1.00000E+002	s	1.00000E+002	second(s)	Max &Charge Time
CHARGECURRENT	QUANT	6.00000E-003	&Charge Current (A)
VOLTAGEFINISH	TWOPARAM	F	1.00000E-003	3.60000E+003	&Voltage Finish	 I (A) < 	Max Time(s)
SAMPLETIME	QUANT	1.00000E-002	Sa&mple Period (s)
CHARGESTOPAT1	MULTIPARAM	4	1.00000E+000	Charge Stop At &1	Voltage > Limit	V
CHARGESTOPAT2	MULTIPARAM	0	0.00000E+000	Charge Stop At &2	None	N/A
AESBHCSELECTOR	TOGGLE	F	Save Both Half Cells
IRCOMP	TOGGLE	F	IR &Measure
EOC	QUANT	0	Open Circuit (V)
SEQUENCER	TOGGLE	TRUE	Run as Sequence
PSTATMODEL	IQUANT	53	Pstat Model
PSTATSECTION	LABEL	IFC5000-01520	Pstat Section
PSTATSERIALNO	LABEL	01520	Pstat Serial Number
CTRLMODE	IQUANT	0	Control Mode
ELECTROMETER	IQUANT	1	RE=0 or CS=1
IESTAB	IQUANT	0	I/E Stability
CASPEED	IQUANT	4	Control Amp Speed
CONVENTION	IQUANT	1	Current Convention
ICHRANGE	IQUANT	2	Ich Range
ICHRANGEMODE	TOGGLE	T	Ich Auto Range
ICHOFFSETENABLE	TOGGLE	F	Ich Offset Enable
ICHOFFSET	QUANT	0	Ich Offset (V)
ICHFILTER	IQUANT	1	Ich Filter
VCHRANGE	IQUANT	2	Vch Range
VCHRANGEMODE	TOGGLE	T	Vch Auto Range
VCHOFFSETENABLE	TOGGLE	F	Vch Offset Enable
VCHOFFSET	QUANT	0	Vch Offset (V)
VCHFILTER	IQUANT	1	Vch Filter
IERANGELOWERLIMIT	IQUANT	9	I/E Range Lower Limit
IERANGEMODE	TOGGLE	F	I/E AutoRange
IERANGE	IQUANT	10	I/E Range
ACHSELECT	IQUANT	1	Ach Select
ACHRANGE	IQUANT	2	Ach Range
ACHOFFSETENABLE	TOGGLE	F	Ach Offset Enable
ACHOFFSET	QUANT	0	Ach Offset (V)
ACHFILTER	IQUANT	1	Ach Filter
CABLEID	IQUANT	14	Cable ID
DCCALDATE	LABEL	20-10-2016	DC Calibration Date
ACCALDATE	LABEL	12/3/2015	AC Calibration Date
FRAMEWORKVERSION	QUANT	7.01	Framework Version
INSTRUMENTVERSION	LABEL	4.00	Instrument Version
CURVE	TABLE	68
	Pt	T	Vf	Im	Vu	Pwr	Sig	Ach	Temp	IERange	Over
	#	s	V	A	V	W	V	V	deg C	#	bits
	0	0.013333	5.94720E-001	5.99469E-003	0.00000E+000	3.56516E-003	3.59960E-001	-1.07984E+000	3.57840E+000	10	...........
	1	0.026667	6.02997E-001	5.99115E-003	0.00000E+000	3.61265E-003	3.59960E-001	-1.06959E+000	3.57840E+000	10	...........
	2	0.04	6.10665E-001	5.99367E-003	0.00000E+000	3.66012E-003	3.59960E-001	-1.07176E+000	3.57840E+000	10	...........
	3	0.053333	6.17981E-001	5.99651E-003	0.00000E+000	3.70573E-003	3.59960E-001	-1.07993E+000	3.57840E+000	10	...........
	4	0.066667	6.24922E-001	5.99275E-003	0.00000E+000	3.74500E-003	3.59960E-001	-1.06981E+000	3.57840E+000	10	...........
	5	0.08	6.31694E-001	5.99196E-003	0.00000E+000	3.78508E-003	3.59960E-001	-1.07156E+000	3.57840E+000	10	...........
	6	0.093333	6.38360E-001	5.99156E-003	0.00000E+000	3.82477E-003	3.59960E-001	-1.07949E+000	3.57840E+000	10	...........
	7	0.106667	6.44906E-001	5.99528E-003	0.00000E+000	3.86640E-003	3.59960E-001	-1.06943E+000	3.57840E+000	10	...........
	8	0.12	6.51401E-001	5.99565E-003	0.00000E+000	3.90557E-003	3.59960E-001	-1.07155E+000	3.57840E+000	10	...........
	9	0.133333	6.57732E-001	5.99607E-003	0.00000E+000	3.94381E-003	3.59960E-001	-1.07925E+000	3.57840E+000	10	...........
	10	0.146667	6.64044E-001	5.99592E-003	0.00000E+000	3.98155E-003	3.59960E-001	-1.06859E+000	3.57840E+000	10	...........
	11	0.16	6.70315E-001	6.00149E-003	0.00000E+000	4.02289E-003	3.59960E-001	-1.07074E+000	3.57840E+000	10	...........
	12	0.173333	6.76524E-001	5.99272E-003	0.00000E+000	4.05422E-003	3.59960E-001	-1.07877E+000	3.57840E+000	10	...........
	13	0.186667	6.82749E-001	5.99113E-003	0.00000E+000	4.09044E-003	3.59960E-001	-1.06847E+000	3.57840E+000	10	...........
	14	0.2	6.88893E-001	5.99623E-003	0.00000E+000	4.13076E-003	3.59960E-001	-1.07025E+000	3.57840E+000	10	...........
	15	0.213333	6.95079E-001	5.99569E-003	0.00000E+000	4.16748E-003	3.59960E-001	-1.07857E+000	3.57840E+000	10	...........
	16	0.226667	7.01191E-001	5.99466E-003	0.00000E+000	4.20340E-003	3.59960E-001	-1.06811E+000	3.57840E+000	10	...........
	17	0.24	7.07243E-001	5.99073E-003	0.00000E+000	4.23690E-003	3.59960E-001	-1.07006E+000	3.57840E+000	10	...........
	18	0.253333	7.13342E-001	5.99416E-003	0.00000E+000	4.27588E-003	3.59960E-001	-1.07840E+000	3.57840E+000	10	...........
	19	0.266667	7.19398E-001	5.98989E-003	0.00000E+000	4.30911E-003	3.59960E-001	-1.06828E+000	3.57840E+000	10	...........
	20	0.28	7.25456E-001	5.99176E-003	0.00000E+000	4.34676E-003	3.59960E-001	-1.06971E+000	3.57840E+000	10	...........
	21	0.293333	7.31488E-001	5.99108E-003	0.00000E+000	4.38241E-003	3.59960E-001	-1.07808E+000	3.57840E+000	10	...........
	22	0.306667	7.37484E-001	5.99012E-003	0.00000E+000	4.41762E-003	3.59960E-001	-1.06792E+000	3.57840E+000	10	...........
	23	0.32	7.43528E-001	5.99574E-003	0.00000E+000	4.45800E-003	3.59960E-001	-1.06974E+000	3.57840E+000	10	...........
	24	0.333333	7.49558E-001	5.99538E-003	0.00000E+000	4.49388E-003	3.59960E-001	-1.07802E+000	3.57840E+000	10	...........
	25	0.346667	7.55551E-001	5.99688E-003	0.00000E+000	4.53095E-003	3.59960E-001	-1.06753E+000	3.57840E+000	10	...........
	26	0.36	7.61521E-001	5.99270E-003	0.00000E+000	4.56356E-003	3.59960E-001	-1.06917E+000	3.57840E+000	10	...........
	27	0.373333	7.67526E-001	5.99580E-003	0.00000E+000	4.60193E-003	3.59960E-001	-1.07787E+000	3.57840E+000	10	...........
	28	0.386667	7.73570E-001	5.99240E-003	0.00000E+000	4.63555E-003	3.59960E-001	-1.06786E+000	3.57840E+000	10	...........
	29	0.4	7.79515E-001	5.99333E-003	0.00000E+000	4.67189E-003	3.59960E-001	-1.06924E+000	3.57840E+000	10	...........
	30	0.413333	7.85503E-001	5.99136E-003	0.00000E+000	4.70623E-003	3.59960E-001	-1.07750E+000	3.57840E+000	10	...........
	31	0.426667	7.91491E-001	5.99223E-003	0.00000E+000	4.74279E-003	3.59960E-001	-1.06725E+000	3.57840E+000	10	...........
	32	0.44	7.97483E-001	5.99319E-003	0.00000E+000	4.77946E-003	3.59960E-001	-1.06893E+000	3.57808E+000	10	...........
	33	0.453333	8.03444E-001	5.99365E-003	0.00000E+000	4.81556E-003	3.59960E-001	-1.07759E+000	3.57710E+000	10	...........
	34	0.466667	8.09404E-001	5.99275E-003	0.00000E+000	4.85055E-003	3.59960E-001	-1.06721E+000	3.57710E+000	10	...........
	35	0.48	8.15327E-001	5.99295E-003	0.00000E+000	4.88621E-003	3.59960E-001	-1.06854E+000	3.57710E+000	10	...........
	36	0.493333	8.21320E-001	5.99105E-003	0.00000E+000	4.92057E-003	3.59960E-001	-1.07690E+000	3.57710E+000	10	...........
	37	0.506667	8.27235E-001	5.99152E-003	0.00000E+000	4.95639E-003	3.59960E-001	-1.06678E+000	3.57710E+000	10	...........
	38	0.52	8.33207E-001	5.99491E-003	0.00000E+000	4.99500E-003	3.59960E-001	-1.06849E+000	3.57710E+000	10	...........
	39	0.533333	8.39108E-001	5.99559E-003	0.00000E+000	5.03095E-003	3.59960E-001	-1.07703E+000	3.57710E+000	10	...........
	40	0.546667	8.45048E-001	5.99274E-003	0.00000E+000	5.06415E-003	3.59960E-001	-1.06650E+000	3.57710E+000	10	...........
	41	0.56	8.50935E-001	5.99450E-003	0.00000E+000	5.10093E-003	3.59960E-001	-1.06790E+000	3.57710E+000	10	...........
	42	0.573333	8.56801E-001	5.99171E-003	0.00000E+000	5.13370E-003	3.59960E-001	-1.07667E+000	3.57710E+000	10	...........
	43	0.586667	8.62751E-001	5.99327E-003	0.00000E+000	5.17070E-003	3.59960E-001	-1.06650E+000	3.57710E+000	10	...........
	44	0.6	8.68665E-001	5.99537E-003	0.00000E+000	5.20797E-003	3.59960E-001	-1.06779E+000	3.57710E+000	10	...........
	45	0.613333	8.74518E-001	5.99131E-003	0.00000E+000	5.23951E-003	3.59960E-001	-1.07654E+000	3.57710E+000	10	...........
	46	0.626667	8.80366E-001	5.99702E-003	0.00000E+000	5.27958E-003	3.59960E-001	-1.06609E+000	3.57710E+000	10	...........
	47	0.64	8.86259E-001	5.99360E-003	0.00000E+000	5.31189E-003	3.59960E-001	-1.06777E+000	3.57710E+000	10	...........
	48	0.653333	8.92113E-001	5.99016E-003	0.00000E+000	5.34390E-003	3.59960E-001	-1.07655E+000	3.57710E+000	10	...........
	49	0.666667	8.97909E-001	5.99460E-003	0.00000E+000	5.38261E-003	3.59960E-001	-1.06626E+000	3.57710E+000	10	...........
	50	0.68	9.03723E-001	5.99343E-003	0.00000E+000	5.41640E-003	3.59960E-001	-1.06760E+000	3.57710E+000	10	...........
	51	0.693333	9.09541E-001	5.98974E-003	0.00000E+000	5.44792E-003	3.59960E-001	-1.07640E+000	3.57710E+000	10	...........
	52	0.706667	9.15285E-001	5.99597E-003	0.00000E+000	5.48802E-003	3.59960E-001	-1.06613E+000	3.57710E+000	10	...........
	53	0.72	9.21090E-001	5.99309E-003	0.00000E+000	5.52018E-003	3.59960E-001	-1.06755E+000	3.57710E+000	10	...........
	54	0.733333	9.26848E-001	5.99469E-003	0.00000E+000	5.55617E-003	3.59960E-001	-1.07644E+000	3.57710E+000	10	...........
	55	0.746667	9.32510E-001	5.99697E-003	0.00000E+000	5.59224E-003	3.59960E-001	-1.06595E+000	3.57710E+000	10	...........
	56	0.76	9.38180E-001	5.99524E-003	0.00000E+000	5.62461E-003	3.59960E-001	-1.06724E+000	3.57710E+000	10	...........
	57	0.773333	9.43886E-001	5.99424E-003	0.00000E+000	5.65788E-003	3.59960E-001	-1.07597E+000	3.57710E+000	10	...........
	58	0.786667	9.49572E-001	5.99585E-003	0.00000E+000	5.69349E-003	3.59960E-001	-1.06564E+000	3.57710E+000	10	...........
	59	0.8	9.55155E-001	5.99504E-003	0.00000E+000	5.72619E-003	3.59960E-001	-1.06666E+000	3.57710E+000	10	...........
	60	0.813333	9.60693E-001	5.99282E-003	0.00000E+000	5.75726E-003	3.59960E-001	-1.07569E+000	3.57710E+000	10	...........
	61	0.826667	9.66243E-001	5.99501E-003	0.00000E+000	5.79264E-003	3.59960E-001	-1.06523E+000	3.57710E+000	10	...........
	62	0.84	9.71826E-001	5.99408E-003	0.00000E+000	5.82521E-003	3.59960E-001	-1.06669E+000	3.57710E+000	10	...........
	63	0.853333	9.77297E-001	5.99161E-003	0.00000E+000	5.85558E-003	3.59960E-001	-1.07578E+000	3.57710E+000	10	...........
	64	0.866667	9.82743E-001	5.99715E-003	0.00000E+000	5.89366E-003	3.59960E-001	-1.06537E+000	3.57710E+000	10	...........
	65	0.88	9.88196E-001	5.99568E-003	0.00000E+000	5.92491E-003	3.59960E-001	-1.06645E+000	3.57710E+000	10	...........
	66	0.893333	9.93582E-001	5.99506E-003	0.00000E+000	5.95659E-003	3.59960E-001	-1.07540E+000	3.57710E+000	10	...........
	67	0.905	9.98633E-001	5.99100E-003	0.00000E+000	5.98281E-003	3.59960E-001	-1.06326E+000	3.57710E+000	10	...........
STARTTIMEOFFSET	QUANT	255.245	Start Time Offset (s)

File: CHARGE_#134.DTA
EXPLAIN
TAG	PWR800_CHARGE
TITLE	LABEL	PWR Cyclic Charge Discharge (Cell) - Charge Step	Test &Identifier
DATE	LABEL	22-6-2017	Date
TIME	LABEL	15:41:00	Time
NOTES	NOTES	3	&Notes...
	supercap test cell
	0.6mg
	6M KOH
PSTAT	PSTAT	IFC5000-01520	Potentiostat
CAPACITY	QUANT	1.00000E-003	Capacity (A-hr)
CELLTYPE	SELECTOR	1	&Cell Type
WORKINGCONNECTION	SELECTOR	0	&Working Lead
MAXCHARGETIME	VARIABLEANDUNITS	1.00000E+002	s	1.00000E+002	second(s)	Max &Charge Time
CHARGECURRENT	QUANT	6.00000E-003	&Charge Current (A)
VOLTAGEFINISH	TWOPARAM	F	1.00000E-003	3.60000E+003	&Voltage Finish	 I (A) < 	Max Time(s)
SAMPLETIME	QUANT	1.00000E-002	Sa&mple Period (s)
CHARGESTOPAT1	MULTIPARAM	4	1.00000E+000	Charge Stop At &1	Voltage > Limit	V
CHARGESTOPAT2	MULTIPARAM	0	0.00000E+000	Charge Stop At &2	None	N/A
AESBHCSELECTOR	TOGGLE	F	Save Both Half Cells
IRCOMP	TOGGLE	F	IR &Measure
EOC	QUANT	0	Open Circuit (V)
SEQUENCER	TOGGLE	TRUE	Run as Sequence
PSTATMODEL	IQUANT	53	Pstat Model
PSTATSECTION	LABEL	IFC5000-01520	Pstat Section
PSTATSERIALNO	LABEL	01520	Pstat Serial Number
CTRLMODE	IQUANT	0	Control Mode
ELECTROMETER	IQUANT	1	RE=0 or CS=1
IESTAB	IQUANT	0	I/E Stability
CASPEED	IQUANT	4	Control Amp Speed
CONVENTION	IQUANT	1	Current Convention
ICHRANGE	IQUANT	2	Ich Range
ICHRANGEMODE	TOGGLE	T	Ich Auto Range
ICHOFFSETENABLE	TOGGLE	F	Ich Offset Enable
ICHOFFSET	QUANT	0	Ich Offset (V)
ICHFILTER	IQUANT	1	Ich Filter
VCHRANGE	IQUANT	2	Vch Range
VCHRANGEMODE	TOGGLE	T	Vch Auto Range
VCHOFFSETENABLE	TOGGLE	F	Vch Offset Enable
VCHOFFSET	QUANT	0	Vch Offset (V)
VCHFILTER	IQUANT	1	Vch Filter
IERANGELOWERLIMIT	IQUANT	9	I/E Range Lower Limit
IERANGEMODE	TOGGLE	F	I/E AutoRange
IERANGE	IQUANT	10	I/E Range
ACHSELECT	IQUANT	1	Ach Select
ACHRANGE	IQUANT	2	Ach Range
ACHOFFSETENABLE	TOGGLE	F	Ach Offset Enable
ACHOFFSET	QUANT	0	Ach Offset (V)
ACHFILTER	IQUANT	1	Ach Filter
CABLEID	IQUANT	14	Cable ID
DCCALDATE	LABEL	20-10-2016	DC Calibration Date
ACCALDATE	LABEL	12/3/2015	AC Calibration Date
FRAMEWORKVERSION	QUANT	7.01	Framework Version
INSTRUMENTVERSION	LABEL	4.00	Instrument Version
CURVE	TABLE	68
	Pt	T	Vf	Im	Vu	Pwr	Sig	Ach	Temp	IERange	Over
	#	s	V	A	V	W	V	V	deg C	#	bits
	0	0.013333	5.94768E-001	5.99183E-003	0.00000E+000	3.56375E-003	3.59960E-001	-1.06761E+000	3.57730E+000	10	...........
	1	0.026667	6.03076E-001	5.99472E-003	0.00000E+000	3.61527E-003	3.59960E-001	-1.06597E+000	3.57730E+000	10	...........
	2	0.04	6.10736E-001	5.99212E-003	0.00000E+000	3.65961E-003	3.59960E-001	-1.07656E+000	3.57730E+000	10	...........
	3	0.053333	6.18068E-001	5.99175E-003	0.00000E+000	3.70331E-003	3.59960E-001	-1.06752E+000	3.57730E+000	10	...........
	4	0.066667	6.25014E-001	5.99107E-003	0.00000E+000	3.74450E-003	3.59960E-001	-1.06597E+000	3.57730E+000	10	...........
	5	0.08	6.31792E-001	5.99357E-003	0.00000E+000	3.78669E-003	3.59960E-001	-1.07681E+000	3.57730E+000	10	...........
	6	0.093333	6.38454E-001	5.99549E-003	0.00000E+000	3.82785E-003	3.59960E-001	-1.06756E+000	3.57730E+000	10	...........
	7	0.106667	6.44994E-001	5.99767E-003	0.00000E+000	3.86846E-003	3.59960E-001	-1.06556E+000	3.57730E+000	10	...........
	8	0.12	6.51450E-001	5.99528E-003	0.00000E+000	3.90563E-003	3.59960E-001	-1.07638E+000	3.57730E+000	10	...........
	9	0.133333	6.57843E-001	5.99171E-003	0.00000E+000	3.94160E-003	3.59960E-001	-1.06692E+000	3.57730E+000	10	...........
	10	0.146667	6.64167E-001	5.99216E-003	0.00000E+000	3.97980E-003	3.59960E-001	-1.06543E+000	3.57730E+000	10	...........
	11	0.16	6.70461E-001	5.99378E-003	0.00000E+000	4.01860E-003	3.59960E-001	-1.07604E+000	3.57730E+000	10	...........
	12	0.173333	6.76738E-001	5.99232E-003	0.00000E+000	4.05523E-003	3.59960E-001	-1.06686E+000	3.57730E+000	10	...........
	13	0.186667	6.82909E-001	5.99451E-003	0.00000E+000	4.09371E-003	3.59960E-001	-1.06497E+000	3.57730E+000	10	...........
	14	0.2	6.89049E-001	5.99793E-003	0.00000E+000	4.13287E-003	3.59960E-001	-1.07600E+000	3.57730E+000	10	...........
	15	0.213333	6.95204E-001	5.99609E-003	0.00000E+000	4.16850E-003	3.59960E-001	-1.06697E+000	3.57730E+000	10	...........
	16	0.226667	7.01314E-001	5.99516E-003	0.00000E+000	4.20449E-003	3.59960E-001	-1.06538E+000	3.57730E+000	10	...........
	17	0.24	7.07457E-001	5.99381E-003	0.00000E+000	4.24036E-003	3.59960E-001	-1.07575E+000	3.57730E+000	10	...........
	18	0.253333	7.13514E-001	5.99583E-003	0.00000E+000	4.27811E-003	3.59960E-001	-1.06676E+000	3.57730E+000	10	...........
	19	0.266667	7.19647E-001	5.99542E-003	0.00000E+000	4.31458E-003	3.59960E-001	-1.06521E+000	3.57730E+000	10	...........
	20	0.28	7.25670E-001	5.99055E-003	0.00000E+000	4.34716E-003	3.59960E-001	-1.07605E+000	3.57730E+000	10	...........
	21	0.293333	7.31727E-001	5.98875E-003	0.00000E+000	4.38213E-003	3.59960E-001	-1.06689E+000	3.57730E+000	10	...........
	22	0.306667	7.37757E-001	5.99199E-003	0.00000E+000	4.42063E-003	3.59960E-001	-1.06500E+000	3.57730E+000	10	...........
	23	0.32	7.43782E-001	5.99499E-003	0.00000E+000	4.45896E-003	3.59960E-001	-1.07576E+000	3.57730E+000	10	...........
	24	0.333333	7.49789E-001	5.99247E-003	0.00000E+000	4.49309E-003	3.59960E-001	-1.06695E+000	3.57730E+000	10	...........
	25	0.346667	7.55794E-001	5.99464E-003	0.00000E+000	4.53071E-003	3.59960E-001	-1.06531E+000	3.57730E+000	10	...........
	26	0.36	7.61791E-001	5.99188E-003	0.00000E+000	4.56456E-003	3.59960E-001	-1.07597E+000	3.57730E+000	10	...........
	27	0.373333	7.67781E-001	5.99526E-003	0.00000E+000	4.60305E-003	3.59960E-001	-1.06688E+000	3.57730E+000	10	...........
	28	0.386667	7.73774E-001	5.99673E-003	0.00000E+000	4.64012E-003	3.59960E-001	-1.06493E+000	3.57730E+000	10	...........
	29	0.4	7.79805E-001	5.99428E-003	0.00000E+000	4.67437E-003	3.59960E-001	-1.07586E+000	3.57730E+000	10	...........
	30	0.413333	7.85771E-001	5.99359E-003	0.00000E+000	4.70959E-003	3.59960E-001	-1.06696E+000	3.57730E+000	10	...........
	31	0.426667	7.91812E-001	5.99496E-003	0.00000E+000	4.74688E-003	3.59960E-001	-1.06503E+000	3.57730E+000	10	...........
	32	0.44	7.97772E-001	5.99454E-003	0.00000E+000	4.78228E-003	3.59960E-001	-1.07554E+000	3.57730E+000	10	...........
	33	0.453333	8.03788E-001	5.99396E-003	0.00000E+000	4.81787E-003	3.59960E-001	-1.06637E+000	3.57730E+000	10	...........
	34	0.466667	8.09715E-001	5.99674E-003	0.00000E+000	4.85565E-003	3.59960E-001	-1.06452E+000	3.57730E+000	10	...........
	35	0.48	8.15666E-001	5.99316E-003	0.00000E+000	4.88841E-003	3.59960E-001	-1.07541E+000	3.57730E+000	10	...........
	36	0.493333	8.21626E-001	5.99644E-003	0.00000E+000	4.92683E-003	3.59960E-001	-1.06661E+000	3.57730E+000	10	...........
	37	0.506667	8.27601E-001	5.99610E-003	0.00000E+000	4.96238E-003	3.59960E-001	-1.06454E+000	3.57730E+000	10	...........
	38	0.52	8.33531E-001	5.99369E-003	0.00000E+000	4.99593E-003	3.59960E-001	-1.07531E+000	3.57730E+000	10	...........
	39	0.533333	8.39436E-001	5.99360E-003	0.00000E+000	5.03125E-003	3.59960E-001	-1.06655E+000	3.57730E+000	10	...........
	40	0.546667	8.45432E-001	5.99522E-003	0.00000E+000	5.06855E-003	3.59960E-001	-1.06462E+000	3.57730E+000	10	...........
	41	0.56	8.51346E-001	5.99018E-003	0.00000E+000	5.09972E-003	3.59960E-001	-1.07519E+000	3.57730E+000	10	...........
	42	0.573333	8.57249E-001	5.99542E-003	0.00000E+000	5.13957E-003	3.59960E-001	-1.06638E+000	3.57730E+000	10	...........
	43	0.586667	8.63157E-001	5.99167E-003	0.00000E+000	5.17176E-003	3.59960E-001	-1.06432E+000	3.57730E+000	10	...........
	44	0.6	8.69109E-001	5.99580E-003	0.00000E+000	5.21101E-003	3.59960E-001	-1.07530E+000	3.57730E+000	10	...........
	45	0.613333	8.74939E-001	5.99779E-003	0.00000E+000	5.24770E-003	3.59960E-001	-1.06665E+000	3.57730E+000	10	...........
	46	0.626667	8.80790E-001	5.99456E-003	0.00000E+000	5.27995E-003	3.59960E-001	-1.06445E+000	3.57730E+000	10	...........
	47	0.64	8.86668E-001	5.99456E-003	0.00000E+000	5.31519E-003	3.59960E-001	-1.07501E+000	3.57730E+000	10	...........
	48	0.653333	8.92480E-001	5.99883E-003	0.00000E+000	5.35384E-003	3.59960E-001	-1.06644E+000	3.57730E+000	10	...........
	49	0.666667	8.98318E-001	5.99365E-003	0.00000E+000	5.38420E-003	3.59960E-001	-1.06458E+000	3.57730E+000	10	...........
	50	0.68	9.04164E-001	5.99018E-003	0.00000E+000	5.41611E-003	3.59960E-001	-1.07528E+000	3.57730E+000	10	...........
	51	0.693333	9.09984E-001	5.99070E-003	0.00000E+000	5.45145E-003	3.59960E-001	-1.06682E+000	3.57730E+000	10	...........
	52	0.706667	9.15763E-001	5.99343E-003	0.00000E+000	5.48856E-003	3.59960E-001	-1.06441E+000	3.57730E+000	10	...........
	53	0.72	9.21545E-001	5.99494E-003	0.00000E+000	5.52461E-003	3.59960E-001	-1.07503E+000	3.57730E+000	10	...........
	54	0.733333	9.27305E-001	5.99481E-003	0.00000E+000	5.55902E-003	3.59960E-001	-1.06663E+000	3.57730E+000	10	...........
	55	0.746667	9.32999E-001	5.98887E-003	0.00000E+000	5.58761E-003	3.59960E-001	-1.06451E+000	3.57730E+000	10	...........
	56	0.76	9.38700E-001	5.99372E-003	0.00000E+000	5.62630E-003	3.59960E-001	-1.07512E+000	3.57730E+000	10	...........
	57	0.773333	9.44352E-001	5.99131E-003	0.00000E+000	5.65791E-003	3.59960E-001	-1.06600E+000	3.57730E+000	10	...........
	58	0.786667	9.50012E-001	5.99264E-003	0.00000E+000	5.69308E-003	3.59960E-001	-1.06382E+000	3.57730E+000	10	...........
	59	0.8	9.55629E-001	5.99143E-003	0.00000E+000	5.72559E-003	3.59960E-001	-1.07470E+000	3.57730E+000	10	...........
	60	0.813333	9.61176E-001	5.99304E-003	0.00000E+000	5.76037E-003	3.59960E-001	-1.06652E+000	3.57730E+000	10	...........
	61	0.826667	9.66729E-001	5.99109E-003	0.00000E+000	5.79176E-003	3.59960E-001	-1.06407E+000	3.57730E+000	10	...........
	62	0.84	9.72251E-001	5.99649E-003	0.00000E+000	5.83010E-003	3.59960E-001	-1.07463E+000	3.57730E+000	10	...........
	63	0.853333	9.77781E-001	5.99096E-003	0.00000E+000	5.85785E-003	3.59960E-001	-1.06622E+000	3.57730E+000	10	...........
	64	0.866667	9.83196E-001	5.99117E-003	0.00000E+000	5.89050E-003	3.59960E-001	-1.06414E+000	3.57757E+000	10	...........
	65	0.88	9.88581E-001	5.99530E-003	0.00000E+000	5.92684E-003	3.59960E-001	-1.07502E+000	3.57840E+000	10	...........
	66	0.893333	9.93962E-001	5.99491E-003	0.00000E+000	5.95871E-003	3.59960E-001	-1.06633E+000	3.57840E+000	10	...........
	67	0.903333	9.98635E-001	5.99209E-003	0.00000E+000	5.98392E-003	3.59960E-001	-1.06564E+000	3.57840E+000	10	...........
STARTTIMEOFFSET	QUANT	257.0433	Start Time Offset (s)