Folder: Tesis/Data/CV_CRGO300517_1/PWRCCD_CRGO300517_1/CHARGE_DISCHARGE (part 97)

File: CHARGE_#193.DTA
EXPLAIN
TAG	PWR800_CHARGE
TITLE	LABEL	PWR Cyclic Charge Discharge (Cell) - Charge Step	Test &Identifier
DATE	LABEL	22-6-2017	Date
TIME	LABEL	15:43:30	Time
NOTES	NOTES	3	&Notes...
	supercap test cell
	0.6mg
	6M KOH
PSTAT	PSTAT	IFC5000-01520	Potentiostat
CAPACITY	QUANT	1.00000E-003	Capacity (A-hr)
CELLTYPE	SELECTOR	1	&Cell Type
WORKINGCONNECTION	SELECTOR	0	&Working Lead
MAXCHARGETIME	VARIABLEANDUNITS	1.00000E+002	s	1.00000E+002	second(s)	Max &Charge Time
CHARGECURRENT	QUANT	6.00000E-003	&Charge Current (A)
VOLTAGEFINISH	TWOPARAM	F	1.00000E-003	3.60000E+003	&Voltage Finish	 I (A) < 	Max Time(s)
SAMPLETIME	QUANT	1.00000E-002	Sa&mple Period (s)
CHARGESTOPAT1	MULTIPARAM	4	1.00000E+000	Charge Stop At &1	Voltage > Limit	V
CHARGESTOPAT2	MULTIPARAM	0	0.00000E+000	Charge Stop At &2	None	N/A
AESBHCSELECTOR	TOGGLE	F	Save Both Half Cells
IRCOMP	TOGGLE	F	IR &Measure
EOC	QUANT	0	Open Circuit (V)
SEQUENCER	TOGGLE	TRUE	Run as Sequence
PSTATMODEL	IQUANT	53	Pstat Model
PSTATSECTION	LABEL	IFC5000-01520	Pstat Section
PSTATSERIALNO	LABEL	01520	Pstat Serial Number
CTRLMODE	IQUANT	0	Control Mode
ELECTROMETER	IQUANT	1	RE=0 or CS=1
IESTAB	IQUANT	0	I/E Stability
CASPEED	IQUANT	4	Control Amp Speed
CONVENTION	IQUANT	1	Current Convention
ICHRANGE	IQUANT	2	Ich Range
ICHRANGEMODE	TOGGLE	T	Ich Auto Range
ICHOFFSETENABLE	TOGGLE	F	Ich Offset Enable
ICHOFFSET	QUANT	0	Ich Offset (V)
ICHFILTER	IQUANT	1	Ich Filter
VCHRANGE	IQUANT	2	Vch Range
VCHRANGEMODE	TOGGLE	T	Vch Auto Range
VCHOFFSETENABLE	TOGGLE	F	Vch Offset Enable
VCHOFFSET	QUANT	0	Vch Offset (V)
VCHFILTER	IQUANT	1	Vch Filter
IERANGELOWERLIMIT	IQUANT	9	I/E Range Lower Limit
IERANGEMODE	TOGGLE	F	I/E AutoRange
IERANGE	IQUANT	10	I/E Range
ACHSELECT	IQUANT	1	Ach Select
ACHRANGE	IQUANT	2	Ach Range
ACHOFFSETENABLE	TOGGLE	F	Ach Offset Enable
ACHOFFSET	QUANT	0	Ach Offset (V)
ACHFILTER	IQUANT	1	Ach Filter
CABLEID	IQUANT	14	Cable ID
DCCALDATE	LABEL	20-10-2016	DC Calibration Date
ACCALDATE	LABEL	12/3/2015	AC Calibration Date
FRAMEWORKVERSION	QUANT	7.01	Framework Version
INSTRUMENTVERSION	LABEL	4.00	Instrument Version
CURVE	TABLE	66
	Pt	T	Vf	Im	Vu	Pwr	Sig	Ach	Temp	IERange	Over
	#	s	V	A	V	W	V	V	deg C	#	bits
	0	0.013333	6.04510E-001	5.99333E-003	0.00000E+000	3.62303E-003	3.59960E-001	-1.08838E+000	3.57800E+000	10	...........
	1	0.026667	6.12942E-001	5.99670E-003	0.00000E+000	3.67563E-003	3.59960E-001	-1.09196E+000	3.57800E+000	10	...........
	2	0.04	6.20761E-001	5.99350E-003	0.00000E+000	3.72053E-003	3.59960E-001	-1.08357E+000	3.57800E+000	10	...........
	3	0.053333	6.28075E-001	5.99457E-003	0.00000E+000	3.76504E-003	3.59960E-001	-1.08796E+000	3.57800E+000	10	...........
	4	0.066667	6.35160E-001	5.99380E-003	0.00000E+000	3.80703E-003	3.59960E-001	-1.09180E+000	3.57800E+000	10	...........
	5	0.08	6.42088E-001	5.99205E-003	0.00000E+000	3.84742E-003	3.59960E-001	-1.08341E+000	3.57800E+000	10	...........
	6	0.093333	6.48823E-001	5.99512E-003	0.00000E+000	3.88977E-003	3.59960E-001	-1.08762E+000	3.57800E+000	10	...........
	7	0.106667	6.55492E-001	5.99358E-003	0.00000E+000	3.92874E-003	3.59960E-001	-1.09202E+000	3.57800E+000	10	...........
	8	0.12	6.62039E-001	5.99127E-003	0.00000E+000	3.96645E-003	3.59960E-001	-1.08362E+000	3.57800E+000	10	...........
	9	0.133333	6.68564E-001	5.99334E-003	0.00000E+000	4.00693E-003	3.59960E-001	-1.08785E+000	3.57800E+000	10	...........
	10	0.146667	6.74953E-001	5.99621E-003	0.00000E+000	4.04716E-003	3.59960E-001	-1.09225E+000	3.57800E+000	10	...........
	11	0.16	6.81354E-001	5.99552E-003	0.00000E+000	4.08507E-003	3.59960E-001	-1.08354E+000	3.57800E+000	10	...........
	12	0.173333	6.87640E-001	5.99221E-003	0.00000E+000	4.12048E-003	3.59960E-001	-1.08762E+000	3.57800E+000	10	...........
	13	0.186667	6.93945E-001	5.99035E-003	0.00000E+000	4.15697E-003	3.59960E-001	-1.09229E+000	3.57800E+000	10	...........
	14	0.2	7.00241E-001	5.99670E-003	0.00000E+000	4.19913E-003	3.59960E-001	-1.08348E+000	3.57800E+000	10	...........
	15	0.213333	7.06455E-001	5.99710E-003	0.00000E+000	4.23668E-003	3.59960E-001	-1.08717E+000	3.57800E+000	10	...........
	16	0.226667	7.12669E-001	5.99432E-003	0.00000E+000	4.27197E-003	3.59960E-001	-1.09204E+000	3.57800E+000	10	...........
	17	0.24	7.18899E-001	5.99378E-003	0.00000E+000	4.30892E-003	3.59960E-001	-1.08327E+000	3.57800E+000	10	...........
	18	0.253333	7.25114E-001	5.99679E-003	0.00000E+000	4.34835E-003	3.59960E-001	-1.08707E+000	3.57800E+000	10	...........
	19	0.266667	7.31277E-001	5.99245E-003	0.00000E+000	4.38214E-003	3.59960E-001	-1.09210E+000	3.57748E+000	10	...........
	20	0.28	7.37381E-001	5.99351E-003	0.00000E+000	4.41950E-003	3.59960E-001	-1.08325E+000	3.57730E+000	10	...........
	21	0.293333	7.43578E-001	5.99399E-003	0.00000E+000	4.45700E-003	3.59960E-001	-1.08680E+000	3.57730E+000	10	...........
	22	0.306667	7.49698E-001	5.99116E-003	0.00000E+000	4.49156E-003	3.59960E-001	-1.09229E+000	3.57730E+000	10	...........
	23	0.32	7.55884E-001	5.99472E-003	0.00000E+000	4.53131E-003	3.59960E-001	-1.08327E+000	3.57730E+000	10	...........
	24	0.333333	7.61997E-001	5.98787E-003	0.00000E+000	4.56274E-003	3.59960E-001	-1.08657E+000	3.57730E+000	10	...........
	25	0.346667	7.68138E-001	5.99588E-003	0.00000E+000	4.60566E-003	3.59960E-001	-1.09234E+000	3.57730E+000	10	...........
	26	0.36	7.74264E-001	5.99532E-003	0.00000E+000	4.64197E-003	3.59960E-001	-1.08323E+000	3.57730E+000	10	...........
	27	0.373333	7.80367E-001	5.99680E-003	0.00000E+000	4.67970E-003	3.59960E-001	-1.08651E+000	3.57730E+000	10	...........
	28	0.386667	7.86476E-001	5.99224E-003	0.00000E+000	4.71275E-003	3.59960E-001	-1.09237E+000	3.57730E+000	10	...........
	29	0.4	7.92606E-001	5.99441E-003	0.00000E+000	4.75120E-003	3.59960E-001	-1.08321E+000	3.57730E+000	10	...........
	30	0.413333	7.98703E-001	5.99079E-003	0.00000E+000	4.78486E-003	3.59960E-001	-1.08646E+000	3.57730E+000	10	...........
	31	0.426667	8.04767E-001	5.99245E-003	0.00000E+000	4.82252E-003	3.59960E-001	-1.09241E+000	3.57730E+000	10	...........
	32	0.44	8.10814E-001	5.99102E-003	0.00000E+000	4.85760E-003	3.59960E-001	-1.08319E+000	3.57730E+000	10	...........
	33	0.453333	8.16885E-001	5.99591E-003	0.00000E+000	4.89797E-003	3.59960E-001	-1.08614E+000	3.57730E+000	10	...........
	34	0.466667	8.22965E-001	5.99448E-003	0.00000E+000	4.93325E-003	3.59960E-001	-1.09279E+000	3.57730E+000	10	...........
	35	0.48	8.28988E-001	5.99371E-003	0.00000E+000	4.96871E-003	3.59960E-001	-1.08313E+000	3.57730E+000	10	...........
	36	0.493333	8.34975E-001	5.99613E-003	0.00000E+000	5.00662E-003	3.59960E-001	-1.08612E+000	3.57730E+000	10	...........
	37	0.506667	8.40981E-001	5.99542E-003	0.00000E+000	5.04204E-003	3.59960E-001	-1.09268E+000	3.57730E+000	10	...........
	38	0.52	8.47002E-001	5.98724E-003	0.00000E+000	5.07121E-003	3.59960E-001	-1.08318E+000	3.57730E+000	10	...........
	39	0.533333	8.53051E-001	5.99078E-003	0.00000E+000	5.11044E-003	3.59960E-001	-1.08580E+000	3.57730E+000	10	...........
	40	0.546667	8.59059E-001	5.99056E-003	0.00000E+000	5.14625E-003	3.59960E-001	-1.09241E+000	3.57730E+000	10	...........
	41	0.56	8.65048E-001	5.99609E-003	0.00000E+000	5.18690E-003	3.59960E-001	-1.08277E+000	3.57730E+000	10	...........
	42	0.573333	8.70996E-001	5.99638E-003	0.00000E+000	5.22282E-003	3.59960E-001	-1.08541E+000	3.57730E+000	10	...........
	43	0.586667	8.76970E-001	5.99547E-003	0.00000E+000	5.25785E-003	3.59960E-001	-1.09245E+000	3.57730E+000	10	...........
	44	0.6	8.82961E-001	5.99474E-003	0.00000E+000	5.29312E-003	3.59960E-001	-1.08282E+000	3.57730E+000	10	...........
	45	0.613333	8.88849E-001	5.99338E-003	0.00000E+000	5.32721E-003	3.59960E-001	-1.08530E+000	3.57730E+000	10	...........
	46	0.626667	8.94759E-001	5.99429E-003	0.00000E+000	5.36345E-003	3.59960E-001	-1.09227E+000	3.57730E+000	10	...........
	47	0.64	9.00644E-001	5.99518E-003	0.00000E+000	5.39952E-003	3.59960E-001	-1.08287E+000	3.57730E+000	10	...........
	48	0.653333	9.06474E-001	5.99253E-003	0.00000E+000	5.43207E-003	3.59960E-001	-1.08544E+000	3.57730E+000	10	...........
	49	0.666667	9.12359E-001	5.99598E-003	0.00000E+000	5.47049E-003	3.59960E-001	-1.09291E+000	3.57730E+000	10	...........
	50	0.68	9.18217E-001	5.99555E-003	0.00000E+000	5.50522E-003	3.59960E-001	-1.08286E+000	3.57730E+000	10	...........
	51	0.693333	9.24065E-001	5.99317E-003	0.00000E+000	5.53807E-003	3.59960E-001	-1.08512E+000	3.57730E+000	10	...........
	52	0.706667	9.29799E-001	5.99518E-003	0.00000E+000	5.57431E-003	3.59960E-001	-1.09264E+000	3.57730E+000	10	...........
	53	0.72	9.35571E-001	5.99988E-003	0.00000E+000	5.61332E-003	3.59960E-001	-1.08318E+000	3.57730E+000	10	...........
	54	0.733333	9.41271E-001	5.99020E-003	0.00000E+000	5.63840E-003	3.59960E-001	-1.08515E+000	3.57730E+000	10	...........
	55	0.746667	9.47012E-001	5.99593E-003	0.00000E+000	5.67822E-003	3.59960E-001	-1.09286E+000	3.57730E+000	10	...........
	56	0.76	9.52688E-001	5.99571E-003	0.00000E+000	5.71204E-003	3.59960E-001	-1.08300E+000	3.57730E+000	10	...........
	57	0.773333	9.58307E-001	5.99128E-003	0.00000E+000	5.74148E-003	3.59960E-001	-1.08491E+000	3.57730E+000	10	...........
	58	0.786667	9.63954E-001	5.99077E-003	0.00000E+000	5.77483E-003	3.59960E-001	-1.09312E+000	3.57730E+000	10	...........
	59	0.8	9.69501E-001	5.98926E-003	0.00000E+000	5.80660E-003	3.59960E-001	-1.08329E+000	3.57730E+000	10	...........
	60	0.813333	9.75067E-001	5.99664E-003	0.00000E+000	5.84713E-003	3.59960E-001	-1.08478E+000	3.57730E+000	10	...........
	61	0.826667	9.80579E-001	5.99858E-003	0.00000E+000	5.88208E-003	3.59960E-001	-1.09308E+000	3.57730E+000	10	...........
	62	0.84	9.86011E-001	5.99540E-003	0.00000E+000	5.91153E-003	3.59960E-001	-1.08316E+000	3.57730E+000	10	...........
	63	0.853333	9.91441E-001	5.99077E-003	0.00000E+000	5.93949E-003	3.59960E-001	-1.08468E+000	3.57730E+000	10	...........
	64	0.866667	9.96857E-001	5.99247E-003	0.00000E+000	5.97363E-003	3.59960E-001	-1.09287E+000	3.57730E+000	10	...........
	65	0.87	1.00019E+000	5.99287E-003	0.00000E+000	5.99404E-003	3.59960E-001	-1.07706E+000	3.57730E+000	10	...........
STARTTIMEOFFSET	QUANT	360.8867	Start Time Offset (s)

File: CHARGE_#194.DTA
EXPLAIN
TAG	PWR800_CHARGE
TITLE	LABEL	PWR Cyclic Charge Discharge (Cell) - Charge Step	Test &Identifier
DATE	LABEL	22-6-2017	Date
TIME	LABEL	15:43:33	Time
NOTES	NOTES	3	&Notes...
	supercap test cell
	0.6mg
	6M KOH
PSTAT	PSTAT	IFC5000-01520	Potentiostat
CAPACITY	QUANT	1.00000E-003	Capacity (A-hr)
CELLTYPE	SELECTOR	1	&Cell Type
WORKINGCONNECTION	SELECTOR	0	&Working Lead
MAXCHARGETIME	VARIABLEANDUNITS	1.00000E+002	s	1.00000E+002	second(s)	Max &Charge Time
CHARGECURRENT	QUANT	6.00000E-003	&Charge Current (A)
VOLTAGEFINISH	TWOPARAM	F	1.00000E-003	3.60000E+003	&Voltage Finish	 I (A) < 	Max Time(s)
SAMPLETIME	QUANT	1.00000E-002	Sa&mple Period (s)
CHARGESTOPAT1	MULTIPARAM	4	1.00000E+000	Charge Stop At &1	Voltage > Limit	V
CHARGESTOPAT2	MULTIPARAM	0	0.00000E+000	Charge Stop At &2	None	N/A
AESBHCSELECTOR	TOGGLE	F	Save Both Half Cells
IRCOMP	TOGGLE	F	IR &Measure
EOC	QUANT	0	Open Circuit (V)
SEQUENCER	TOGGLE	TRUE	Run as Sequence
PSTATMODEL	IQUANT	53	Pstat Model
PSTATSECTION	LABEL	IFC5000-01520	Pstat Section
PSTATSERIALNO	LABEL	01520	Pstat Serial Number
CTRLMODE	IQUANT	0	Control Mode
ELECTROMETER	IQUANT	1	RE=0 or CS=1
IESTAB	IQUANT	0	I/E Stability
CASPEED	IQUANT	4	Control Amp Speed
CONVENTION	IQUANT	1	Current Convention
ICHRANGE	IQUANT	2	Ich Range
ICHRANGEMODE	TOGGLE	T	Ich Auto Range
ICHOFFSETENABLE	TOGGLE	F	Ich Offset Enable
ICHOFFSET	QUANT	0	Ich Offset (V)
ICHFILTER	IQUANT	1	Ich Filter
VCHRANGE	IQUANT	2	Vch Range
VCHRANGEMODE	TOGGLE	T	Vch Auto Range
VCHOFFSETENABLE	TOGGLE	F	Vch Offset Enable
VCHOFFSET	QUANT	0	Vch Offset (V)
VCHFILTER	IQUANT	1	Vch Filter
IERANGELOWERLIMIT	IQUANT	9	I/E Range Lower Limit
IERANGEMODE	TOGGLE	F	I/E AutoRange
IERANGE	IQUANT	10	I/E Range
ACHSELECT	IQUANT	1	Ach Select
ACHRANGE	IQUANT	2	Ach Range
ACHOFFSETENABLE	TOGGLE	F	Ach Offset Enable
ACHOFFSET	QUANT	0	Ach Offset (V)
ACHFILTER	IQUANT	1	Ach Filter
CABLEID	IQUANT	14	Cable ID
DCCALDATE	LABEL	20-10-2016	DC Calibration Date
ACCALDATE	LABEL	12/3/2015	AC Calibration Date
FRAMEWORKVERSION	QUANT	7.01	Framework Version
INSTRUMENTVERSION	LABEL	4.00	Instrument Version
CURVE	TABLE	66
	Pt	T	Vf	Im	Vu	Pwr	Sig	Ach	Temp	IERange	Over
	#	s	V	A	V	W	V	V	deg C	#	bits
	0	0.013333	6.04465E-001	5.99324E-003	0.00000E+000	3.62270E-003	3.59960E-001	-1.08513E+000	3.57700E+000	10	...........
	1	0.026667	6.12937E-001	5.99594E-003	0.00000E+000	3.67513E-003	3.59960E-001	-1.08751E+000	3.57700E+000	10	...........
	2	0.04	6.20773E-001	5.99607E-003	0.00000E+000	3.72219E-003	3.59960E-001	-1.09473E+000	3.57700E+000	10	...........
	3	0.053333	6.28098E-001	5.99299E-003	0.00000E+000	3.76418E-003	3.59960E-001	-1.08503E+000	3.57700E+000	10	...........
	4	0.066667	6.35188E-001	5.99555E-003	0.00000E+000	3.80830E-003	3.59960E-001	-1.08730E+000	3.57700E+000	10	...........
	5	0.08	6.42132E-001	5.99189E-003	0.00000E+000	3.84758E-003	3.59960E-001	-1.09472E+000	3.57700E+000	10	...........
	6	0.093333	6.48848E-001	5.99223E-003	0.00000E+000	3.88804E-003	3.59960E-001	-1.08512E+000	3.57700E+000	10	...........
	7	0.106667	6.55533E-001	5.99516E-003	0.00000E+000	3.93002E-003	3.59960E-001	-1.08713E+000	3.57700E+000	10	...........
	8	0.12	6.62059E-001	5.99335E-003	0.00000E+000	3.96795E-003	3.59960E-001	-1.09473E+000	3.57700E+000	10	...........
	9	0.133333	6.68603E-001	5.99173E-003	0.00000E+000	4.00608E-003	3.59960E-001	-1.08501E+000	3.57700E+000	10	...........
	10	0.146667	6.75006E-001	5.99497E-003	0.00000E+000	4.04664E-003	3.59960E-001	-1.08716E+000	3.57700E+000	10	...........
	11	0.16	6.81390E-001	5.99440E-003	0.00000E+000	4.08452E-003	3.59960E-001	-1.09497E+000	3.57700E+000	10	...........
	12	0.173333	6.87722E-001	5.99295E-003	0.00000E+000	4.12148E-003	3.59960E-001	-1.08514E+000	3.57700E+000	10	...........
	13	0.186667	6.94022E-001	5.99084E-003	0.00000E+000	4.15778E-003	3.59960E-001	-1.08697E+000	3.57700E+000	10	...........
	14	0.2	7.00283E-001	5.99309E-003	0.00000E+000	4.19686E-003	3.59960E-001	-1.09517E+000	3.57700E+000	10	...........
	15	0.213333	7.06533E-001	5.99429E-003	0.00000E+000	4.23517E-003	3.59960E-001	-1.08517E+000	3.57700E+000	10	...........
	16	0.226667	7.12757E-001	5.99455E-003	0.00000E+000	4.27266E-003	3.59960E-001	-1.08667E+000	3.57700E+000	10	...........
	17	0.24	7.19025E-001	5.99438E-003	0.00000E+000	4.31011E-003	3.59960E-001	-1.09499E+000	3.57700E+000	10	...........
	18	0.253333	7.25190E-001	5.99758E-003	0.00000E+000	4.34938E-003	3.59960E-001	-1.08504E+000	3.57700E+000	10	...........
	19	0.266667	7.31368E-001	5.99455E-003	0.00000E+000	4.38423E-003	3.59960E-001	-1.08627E+000	3.57700E+000	10	...........
	20	0.28	7.37532E-001	5.99334E-003	0.00000E+000	4.42028E-003	3.59960E-001	-1.09466E+000	3.57700E+000	10	...........
	21	0.293333	7.43723E-001	5.99419E-003	0.00000E+000	4.45802E-003	3.59960E-001	-1.08470E+000	3.57700E+000	10	...........
	22	0.306667	7.49859E-001	5.99365E-003	0.00000E+000	4.49439E-003	3.59960E-001	-1.08611E+000	3.57700E+000	10	...........
	23	0.32	7.56026E-001	5.99808E-003	0.00000E+000	4.53470E-003	3.59960E-001	-1.09473E+000	3.57700E+000	10	...........
	24	0.333333	7.62151E-001	5.99520E-003	0.00000E+000	4.56925E-003	3.59960E-001	-1.08474E+000	3.57700E+000	10	...........
	25	0.346667	7.68235E-001	5.99154E-003	0.00000E+000	4.60291E-003	3.59960E-001	-1.08582E+000	3.57700E+000	10	...........
	26	0.36	7.74364E-001	5.99809E-003	0.00000E+000	4.64471E-003	3.59960E-001	-1.09446E+000	3.57700E+000	10	...........
	27	0.373333	7.80448E-001	5.99176E-003	0.00000E+000	4.67625E-003	3.59960E-001	-1.08466E+000	3.57700E+000	10	...........
	28	0.386667	7.86569E-001	5.99284E-003	0.00000E+000	4.71378E-003	3.59960E-001	-1.08596E+000	3.57700E+000	10	...........
	29	0.4	7.92654E-001	5.99866E-003	0.00000E+000	4.75486E-003	3.59960E-001	-1.09468E+000	3.57700E+000	10	...........
	30	0.413333	7.98737E-001	5.99539E-003	0.00000E+000	4.78874E-003	3.59960E-001	-1.08466E+000	3.57700E+000	10	...........
	31	0.426667	8.04813E-001	5.99438E-003	0.00000E+000	4.82435E-003	3.59960E-001	-1.08555E+000	3.57700E+000	10	...........
	32	0.44	8.10875E-001	5.99453E-003	0.00000E+000	4.86082E-003	3.59960E-001	-1.09481E+000	3.57700E+000	10	...........
	33	0.453333	8.16999E-001	5.99062E-003	0.00000E+000	4.89433E-003	3.59960E-001	-1.08483E+000	3.57700E+000	10	...........
	34	0.466667	8.23041E-001	5.99137E-003	0.00000E+000	4.93114E-003	3.59960E-001	-1.08552E+000	3.57700E+000	10	...........
	35	0.48	8.29107E-001	5.99422E-003	0.00000E+000	4.96985E-003	3.59960E-001	-1.09476E+000	3.57700E+000	10	...........
	36	0.493333	8.35162E-001	5.99522E-003	0.00000E+000	5.00698E-003	3.59960E-001	-1.08489E+000	3.57700E+000	10	...........
	37	0.506667	8.41189E-001	5.99362E-003	0.00000E+000	5.04177E-003	3.59960E-001	-1.08551E+000	3.57700E+000	10	...........
	38	0.52	8.47214E-001	5.99236E-003	0.00000E+000	5.07681E-003	3.59960E-001	-1.09491E+000	3.57700E+000	10	...........
	39	0.533333	8.53192E-001	5.99562E-003	0.00000E+000	5.11541E-003	3.59960E-001	-1.08528E+000	3.57700E+000	10	...........
	40	0.546667	8.59177E-001	5.99220E-003	0.00000E+000	5.14836E-003	3.59960E-001	-1.08571E+000	3.57700E+000	10	...........
	41	0.56	8.65172E-001	5.99754E-003	0.00000E+000	5.18890E-003	3.59960E-001	-1.09503E+000	3.57700E+000	10	...........
	42	0.573333	8.71150E-001	5.99217E-003	0.00000E+000	5.22008E-003	3.59960E-001	-1.08534E+000	3.57700E+000	10	...........
	43	0.586667	8.77071E-001	5.99137E-003	0.00000E+000	5.25486E-003	3.59960E-001	-1.08541E+000	3.57700E+000	10	...........
	44	0.6	8.83011E-001	5.99188E-003	0.00000E+000	5.29090E-003	3.59960E-001	-1.09536E+000	3.57700E+000	10	...........
	45	0.613333	8.88932E-001	5.99769E-003	0.00000E+000	5.33154E-003	3.59960E-001	-1.08578E+000	3.57700E+000	10	...........
	46	0.626667	8.94838E-001	5.99172E-003	0.00000E+000	5.36161E-003	3.59960E-001	-1.08621E+000	3.57700E+000	10	...........
	47	0.64	9.00736E-001	5.99409E-003	0.00000E+000	5.39910E-003	3.59960E-001	-1.09620E+000	3.57700E+000	10	...........
	48	0.653333	9.06653E-001	5.99538E-003	0.00000E+000	5.43573E-003	3.59960E-001	-1.08715E+000	3.57700E+000	10	...........
	49	0.666667	9.12487E-001	5.99147E-003	0.00000E+000	5.46713E-003	3.59960E-001	-1.08759E+000	3.57700E+000	10	...........
	50	0.68	9.18333E-001	5.99711E-003	0.00000E+000	5.50734E-003	3.59960E-001	-1.09786E+000	3.57700E+000	10	...........
	51	0.693333	9.24202E-001	5.99469E-003	0.00000E+000	5.54030E-003	3.59960E-001	-1.08908E+000	3.57700E+000	10	...........
	52	0.706667	9.29967E-001	5.99245E-003	0.00000E+000	5.57278E-003	3.59960E-001	-1.08952E+000	3.57700E+000	10	...........
	53	0.72	9.35713E-001	5.98742E-003	0.00000E+000	5.60250E-003	3.59960E-001	-1.10007E+000	3.57700E+000	10	...........
	54	0.733333	9.41425E-001	5.99131E-003	0.00000E+000	5.64037E-003	3.59960E-001	-1.09165E+000	3.57700E+000	10	...........
	55	0.746667	9.47134E-001	5.99411E-003	0.00000E+000	5.67723E-003	3.59960E-001	-1.09224E+000	3.57815E+000	10	...........
	56	0.76	9.52810E-001	5.99177E-003	0.00000E+000	5.70902E-003	3.59960E-001	-1.10280E+000	3.57820E+000	10	...........
	57	0.773333	9.58449E-001	5.98995E-003	0.00000E+000	5.74106E-003	3.59960E-001	-1.09406E+000	3.57820E+000	10	...........
	58	0.786667	9.64059E-001	5.99405E-003	0.00000E+000	5.77862E-003	3.59960E-001	-1.09425E+000	3.57820E+000	10	...........
	59	0.8	9.69609E-001	5.99518E-003	0.00000E+000	5.81298E-003	3.59960E-001	-1.10466E+000	3.57820E+000	10	...........
	60	0.813333	9.75194E-001	5.99070E-003	0.00000E+000	5.84210E-003	3.59960E-001	-1.09521E+000	3.57820E+000	10	...........
	61	0.826667	9.80687E-001	5.99534E-003	0.00000E+000	5.87955E-003	3.59960E-001	-1.09472E+000	3.57820E+000	10	...........
	62	0.84	9.86113E-001	5.99591E-003	0.00000E+000	5.91264E-003	3.59960E-001	-1.10467E+000	3.57820E+000	10	...........
	63	0.853333	9.91546E-001	5.99715E-003	0.00000E+000	5.94645E-003	3.59960E-001	-1.09585E+000	3.57820E+000	10	...........
	64	0.866667	9.96932E-001	5.99283E-003	0.00000E+000	5.97444E-003	3.59960E-001	-1.09526E+000	3.57820E+000	10	...........
	65	0.87	1.00026E+000	5.99133E-003	0.00000E+000	5.99291E-003	3.59960E-001	-1.10404E+000	3.57820E+000	10	...........
STARTTIMEOFFSET	QUANT	362.6167	Start Time Offset (s)