Folder: Tesis/Data/CV_CRGO300517_1/PWRCCD_CRGO300517_1/CHARGE_DISCHARGE (part 179)

File: CHARGE_#363.DTA
EXPLAIN
TAG	PWR800_CHARGE
TITLE	LABEL	PWR Cyclic Charge Discharge (Cell) - Charge Step	Test &Identifier
DATE	LABEL	22-6-2017	Date
TIME	LABEL	15:50:30	Time
NOTES	NOTES	3	&Notes...
	supercap test cell
	0.6mg
	6M KOH
PSTAT	PSTAT	IFC5000-01520	Potentiostat
CAPACITY	QUANT	1.00000E-003	Capacity (A-hr)
CELLTYPE	SELECTOR	1	&Cell Type
WORKINGCONNECTION	SELECTOR	0	&Working Lead
MAXCHARGETIME	VARIABLEANDUNITS	1.00000E+002	s	1.00000E+002	second(s)	Max &Charge Time
CHARGECURRENT	QUANT	6.00000E-003	&Charge Current (A)
VOLTAGEFINISH	TWOPARAM	F	1.00000E-003	3.60000E+003	&Voltage Finish	 I (A) < 	Max Time(s)
SAMPLETIME	QUANT	1.00000E-002	Sa&mple Period (s)
CHARGESTOPAT1	MULTIPARAM	4	1.00000E+000	Charge Stop At &1	Voltage > Limit	V
CHARGESTOPAT2	MULTIPARAM	0	0.00000E+000	Charge Stop At &2	None	N/A
AESBHCSELECTOR	TOGGLE	F	Save Both Half Cells
IRCOMP	TOGGLE	F	IR &Measure
EOC	QUANT	0	Open Circuit (V)
SEQUENCER	TOGGLE	TRUE	Run as Sequence
PSTATMODEL	IQUANT	53	Pstat Model
PSTATSECTION	LABEL	IFC5000-01520	Pstat Section
PSTATSERIALNO	LABEL	01520	Pstat Serial Number
CTRLMODE	IQUANT	0	Control Mode
ELECTROMETER	IQUANT	1	RE=0 or CS=1
IESTAB	IQUANT	0	I/E Stability
CASPEED	IQUANT	4	Control Amp Speed
CONVENTION	IQUANT	1	Current Convention
ICHRANGE	IQUANT	2	Ich Range
ICHRANGEMODE	TOGGLE	T	Ich Auto Range
ICHOFFSETENABLE	TOGGLE	F	Ich Offset Enable
ICHOFFSET	QUANT	0	Ich Offset (V)
ICHFILTER	IQUANT	1	Ich Filter
VCHRANGE	IQUANT	2	Vch Range
VCHRANGEMODE	TOGGLE	T	Vch Auto Range
VCHOFFSETENABLE	TOGGLE	F	Vch Offset Enable
VCHOFFSET	QUANT	0	Vch Offset (V)
VCHFILTER	IQUANT	1	Vch Filter
IERANGELOWERLIMIT	IQUANT	9	I/E Range Lower Limit
IERANGEMODE	TOGGLE	F	I/E AutoRange
IERANGE	IQUANT	10	I/E Range
ACHSELECT	IQUANT	1	Ach Select
ACHRANGE	IQUANT	2	Ach Range
ACHOFFSETENABLE	TOGGLE	F	Ach Offset Enable
ACHOFFSET	QUANT	0	Ach Offset (V)
ACHFILTER	IQUANT	1	Ach Filter
CABLEID	IQUANT	14	Cable ID
DCCALDATE	LABEL	20-10-2016	DC Calibration Date
ACCALDATE	LABEL	12/3/2015	AC Calibration Date
FRAMEWORKVERSION	QUANT	7.01	Framework Version
INSTRUMENTVERSION	LABEL	4.00	Instrument Version
CURVE	TABLE	61
	Pt	T	Vf	Im	Vu	Pwr	Sig	Ach	Temp	IERange	Over
	#	s	V	A	V	W	V	V	deg C	#	bits
	0	0.013333	6.21748E-001	5.99376E-003	0.00000E+000	3.72661E-003	3.59960E-001	-1.13429E+000	3.57670E+000	10	...........
	1	0.026667	6.30432E-001	5.99518E-003	0.00000E+000	3.77955E-003	3.59960E-001	-1.12607E+000	3.57670E+000	10	...........
	2	0.04	6.38425E-001	5.99629E-003	0.00000E+000	3.82819E-003	3.59960E-001	-1.12353E+000	3.57740E+000	10	...........
	3	0.053333	6.46057E-001	5.99507E-003	0.00000E+000	3.87316E-003	3.59960E-001	-1.13400E+000	3.57740E+000	10	...........
	4	0.066667	6.53373E-001	5.99103E-003	0.00000E+000	3.91438E-003	3.59960E-001	-1.12559E+000	3.57740E+000	10	...........
	5	0.08	6.60455E-001	5.99524E-003	0.00000E+000	3.95959E-003	3.59960E-001	-1.12338E+000	3.57740E+000	10	...........
	6	0.093333	6.67465E-001	5.99431E-003	0.00000E+000	4.00099E-003	3.59960E-001	-1.13409E+000	3.57740E+000	10	...........
	7	0.106667	6.74311E-001	5.99418E-003	0.00000E+000	4.04194E-003	3.59960E-001	-1.12563E+000	3.57740E+000	10	...........
	8	0.12	6.81109E-001	5.99466E-003	0.00000E+000	4.08301E-003	3.59960E-001	-1.12255E+000	3.57740E+000	10	...........
	9	0.133333	6.87840E-001	5.99419E-003	0.00000E+000	4.12304E-003	3.59960E-001	-1.13296E+000	3.57740E+000	10	...........
	10	0.146667	6.94492E-001	5.99482E-003	0.00000E+000	4.16336E-003	3.59960E-001	-1.12498E+000	3.57740E+000	10	...........
	11	0.16	7.01098E-001	5.99291E-003	0.00000E+000	4.20162E-003	3.59960E-001	-1.12218E+000	3.57740E+000	10	...........
	12	0.173333	7.07633E-001	5.99395E-003	0.00000E+000	4.24152E-003	3.59960E-001	-1.13226E+000	3.57740E+000	10	...........
	13	0.186667	7.14146E-001	5.99117E-003	0.00000E+000	4.27857E-003	3.59960E-001	-1.12449E+000	3.57740E+000	10	...........
	14	0.2	7.20755E-001	5.99278E-003	0.00000E+000	4.31932E-003	3.59960E-001	-1.12172E+000	3.57740E+000	10	...........
	15	0.213333	7.27178E-001	5.99446E-003	0.00000E+000	4.35904E-003	3.59960E-001	-1.13236E+000	3.57740E+000	10	...........
	16	0.226667	7.33614E-001	5.99282E-003	0.00000E+000	4.39642E-003	3.59960E-001	-1.12464E+000	3.57740E+000	10	...........
	17	0.24	7.40014E-001	5.99669E-003	0.00000E+000	4.43764E-003	3.59960E-001	-1.12171E+000	3.57740E+000	10	...........
	18	0.253333	7.46460E-001	5.99297E-003	0.00000E+000	4.47351E-003	3.59960E-001	-1.13210E+000	3.57740E+000	10	...........
	19	0.266667	7.52821E-001	5.99534E-003	0.00000E+000	4.51342E-003	3.59960E-001	-1.12461E+000	3.57740E+000	10	...........
	20	0.28	7.59226E-001	5.99755E-003	0.00000E+000	4.55349E-003	3.59960E-001	-1.12150E+000	3.57740E+000	10	...........
	21	0.293333	7.65607E-001	5.99577E-003	0.00000E+000	4.59041E-003	3.59960E-001	-1.13205E+000	3.57740E+000	10	...........
	22	0.306667	7.71960E-001	5.99794E-003	0.00000E+000	4.63017E-003	3.59960E-001	-1.12447E+000	3.57740E+000	10	...........
	23	0.32	7.78298E-001	5.99764E-003	0.00000E+000	4.66795E-003	3.59960E-001	-1.12133E+000	3.57740E+000	10	...........
	24	0.333333	7.84648E-001	5.98970E-003	0.00000E+000	4.69981E-003	3.59960E-001	-1.13159E+000	3.57740E+000	10	...........
	25	0.346667	7.90980E-001	5.99238E-003	0.00000E+000	4.73986E-003	3.59960E-001	-1.12445E+000	3.57740E+000	10	...........
	26	0.36	7.97309E-001	5.99369E-003	0.00000E+000	4.77882E-003	3.59960E-001	-1.12113E+000	3.57740E+000	10	...........
	27	0.373333	8.03573E-001	5.99308E-003	0.00000E+000	4.81588E-003	3.59960E-001	-1.13122E+000	3.57740E+000	10	...........
	28	0.386667	8.09859E-001	5.99423E-003	0.00000E+000	4.85448E-003	3.59960E-001	-1.12405E+000	3.57740E+000	10	...........
	29	0.4	8.16184E-001	5.99538E-003	0.00000E+000	4.89333E-003	3.59960E-001	-1.12067E+000	3.57740E+000	10	...........
	30	0.413333	8.22435E-001	5.99199E-003	0.00000E+000	4.92802E-003	3.59960E-001	-1.13100E+000	3.57740E+000	10	...........
	31	0.426667	8.28658E-001	5.99163E-003	0.00000E+000	4.96501E-003	3.59960E-001	-1.12414E+000	3.57740E+000	10	...........
	32	0.44	8.34884E-001	5.99389E-003	0.00000E+000	5.00420E-003	3.59960E-001	-1.12065E+000	3.57740E+000	10	...........
	33	0.453333	8.41076E-001	5.99384E-003	0.00000E+000	5.04128E-003	3.59960E-001	-1.13070E+000	3.57740E+000	10	...........
	34	0.466667	8.47306E-001	5.99132E-003	0.00000E+000	5.07648E-003	3.59960E-001	-1.12394E+000	3.57740E+000	10	...........
	35	0.48	8.53501E-001	5.99397E-003	0.00000E+000	5.11586E-003	3.59960E-001	-1.12042E+000	3.57740E+000	10	...........
	36	0.493333	8.59686E-001	5.99430E-003	0.00000E+000	5.15322E-003	3.59960E-001	-1.13039E+000	3.57740E+000	10	...........
	37	0.506667	8.65784E-001	5.98736E-003	0.00000E+000	5.18376E-003	3.59960E-001	-1.12395E+000	3.57740E+000	10	...........
	38	0.52	8.71972E-001	5.99205E-003	0.00000E+000	5.22490E-003	3.59960E-001	-1.12018E+000	3.57740E+000	10	...........
	39	0.533333	8.78080E-001	5.99408E-003	0.00000E+000	5.26329E-003	3.59960E-001	-1.13010E+000	3.57740E+000	10	...........
	40	0.546667	8.84216E-001	5.99422E-003	0.00000E+000	5.30019E-003	3.59960E-001	-1.12363E+000	3.57740E+000	10	...........
	41	0.56	8.90286E-001	5.99323E-003	0.00000E+000	5.33569E-003	3.59960E-001	-1.11988E+000	3.57740E+000	10	...........
	42	0.573333	8.96361E-001	5.99490E-003	0.00000E+000	5.37359E-003	3.59960E-001	-1.13002E+000	3.57740E+000	10	...........
	43	0.586667	9.02417E-001	5.99204E-003	0.00000E+000	5.40732E-003	3.59960E-001	-1.12386E+000	3.57740E+000	10	...........
	44	0.6	9.08430E-001	5.99349E-003	0.00000E+000	5.44467E-003	3.59960E-001	-1.11992E+000	3.57740E+000	10	...........
	45	0.613333	9.14432E-001	5.99205E-003	0.00000E+000	5.47932E-003	3.59960E-001	-1.12982E+000	3.57740E+000	10	...........
	46	0.626667	9.20415E-001	5.99106E-003	0.00000E+000	5.51426E-003	3.59960E-001	-1.12388E+000	3.57740E+000	10	...........
	47	0.64	9.26327E-001	5.99262E-003	0.00000E+000	5.55113E-003	3.59960E-001	-1.11982E+000	3.57740E+000	10	...........
	48	0.653333	9.32210E-001	5.99777E-003	0.00000E+000	5.59118E-003	3.59960E-001	-1.12946E+000	3.57740E+000	10	...........
	49	0.666667	9.38091E-001	5.99814E-003	0.00000E+000	5.62680E-003	3.59960E-001	-1.12341E+000	3.57740E+000	10	...........
	50	0.68	9.43916E-001	5.99631E-003	0.00000E+000	5.66001E-003	3.59960E-001	-1.11918E+000	3.57740E+000	10	...........
	51	0.693333	9.49715E-001	5.99187E-003	0.00000E+000	5.69057E-003	3.59960E-001	-1.12884E+000	3.57740E+000	10	...........
	52	0.706667	9.55470E-001	5.99152E-003	0.00000E+000	5.72472E-003	3.59960E-001	-1.12311E+000	3.57740E+000	10	...........
	53	0.72	9.61186E-001	5.99178E-003	0.00000E+000	5.75921E-003	3.59960E-001	-1.11884E+000	3.57740E+000	10	...........
	54	0.733333	9.66852E-001	5.99889E-003	0.00000E+000	5.80004E-003	3.59960E-001	-1.12850E+000	3.57740E+000	10	...........
	55	0.746667	9.72503E-001	5.99133E-003	0.00000E+000	5.82658E-003	3.59960E-001	-1.12303E+000	3.57740E+000	10	...........
	56	0.76	9.78112E-001	5.99508E-003	0.00000E+000	5.86387E-003	3.59960E-001	-1.11861E+000	3.57740E+000	10	...........
	57	0.773333	9.83660E-001	5.99160E-003	0.00000E+000	5.89370E-003	3.59960E-001	-1.12822E+000	3.57740E+000	10	...........
	58	0.786667	9.89166E-001	5.99415E-003	0.00000E+000	5.92921E-003	3.59960E-001	-1.12282E+000	3.57740E+000	10	...........
	59	0.8	9.94636E-001	5.99200E-003	0.00000E+000	5.95985E-003	3.59960E-001	-1.11813E+000	3.57740E+000	10	...........
	60	0.808333	9.99080E-001	5.99104E-003	0.00000E+000	5.98552E-003	3.59960E-001	-1.13202E+000	3.57740E+000	10	...........
STARTTIMEOFFSET	QUANT	643.5965	Start Time Offset (s)

File: CHARGE_#364.DTA
EXPLAIN
TAG	PWR800_CHARGE
TITLE	LABEL	PWR Cyclic Charge Discharge (Cell) - Charge Step	Test &Identifier
DATE	LABEL	22-6-2017	Date
TIME	LABEL	15:50:32	Time
NOTES	NOTES	3	&Notes...
	supercap test cell
	0.6mg
	6M KOH
PSTAT	PSTAT	IFC5000-01520	Potentiostat
CAPACITY	QUANT	1.00000E-003	Capacity (A-hr)
CELLTYPE	SELECTOR	1	&Cell Type
WORKINGCONNECTION	SELECTOR	0	&Working Lead
MAXCHARGETIME	VARIABLEANDUNITS	1.00000E+002	s	1.00000E+002	second(s)	Max &Charge Time
CHARGECURRENT	QUANT	6.00000E-003	&Charge Current (A)
VOLTAGEFINISH	TWOPARAM	F	1.00000E-003	3.60000E+003	&Voltage Finish	 I (A) < 	Max Time(s)
SAMPLETIME	QUANT	1.00000E-002	Sa&mple Period (s)
CHARGESTOPAT1	MULTIPARAM	4	1.00000E+000	Charge Stop At &1	Voltage > Limit	V
CHARGESTOPAT2	MULTIPARAM	0	0.00000E+000	Charge Stop At &2	None	N/A
AESBHCSELECTOR	TOGGLE	F	Save Both Half Cells
IRCOMP	TOGGLE	F	IR &Measure
EOC	QUANT	0	Open Circuit (V)
SEQUENCER	TOGGLE	TRUE	Run as Sequence
PSTATMODEL	IQUANT	53	Pstat Model
PSTATSECTION	LABEL	IFC5000-01520	Pstat Section
PSTATSERIALNO	LABEL	01520	Pstat Serial Number
CTRLMODE	IQUANT	0	Control Mode
ELECTROMETER	IQUANT	1	RE=0 or CS=1
IESTAB	IQUANT	0	I/E Stability
CASPEED	IQUANT	4	Control Amp Speed
CONVENTION	IQUANT	1	Current Convention
ICHRANGE	IQUANT	2	Ich Range
ICHRANGEMODE	TOGGLE	T	Ich Auto Range
ICHOFFSETENABLE	TOGGLE	F	Ich Offset Enable
ICHOFFSET	QUANT	0	Ich Offset (V)
ICHFILTER	IQUANT	1	Ich Filter
VCHRANGE	IQUANT	2	Vch Range
VCHRANGEMODE	TOGGLE	T	Vch Auto Range
VCHOFFSETENABLE	TOGGLE	F	Vch Offset Enable
VCHOFFSET	QUANT	0	Vch Offset (V)
VCHFILTER	IQUANT	1	Vch Filter
IERANGELOWERLIMIT	IQUANT	9	I/E Range Lower Limit
IERANGEMODE	TOGGLE	F	I/E AutoRange
IERANGE	IQUANT	10	I/E Range
ACHSELECT	IQUANT	1	Ach Select
ACHRANGE	IQUANT	2	Ach Range
ACHOFFSETENABLE	TOGGLE	F	Ach Offset Enable
ACHOFFSET	QUANT	0	Ach Offset (V)
ACHFILTER	IQUANT	1	Ach Filter
CABLEID	IQUANT	14	Cable ID
DCCALDATE	LABEL	20-10-2016	DC Calibration Date
ACCALDATE	LABEL	12/3/2015	AC Calibration Date
FRAMEWORKVERSION	QUANT	7.01	Framework Version
INSTRUMENTVERSION	LABEL	4.00	Instrument Version
CURVE	TABLE	61
	Pt	T	Vf	Im	Vu	Pwr	Sig	Ach	Temp	IERange	Over
	#	s	V	A	V	W	V	V	deg C	#	bits
	0	0.013333	6.21944E-001	5.99552E-003	0.00000E+000	3.72888E-003	3.59960E-001	-1.12843E+000	3.57800E+000	10	...........
	1	0.026667	6.30640E-001	5.99536E-003	0.00000E+000	3.78091E-003	3.59960E-001	-1.11916E+000	3.57800E+000	10	...........
	2	0.04	6.38635E-001	5.99277E-003	0.00000E+000	3.82719E-003	3.59960E-001	-1.12337E+000	3.57800E+000	10	...........
	3	0.053333	6.46223E-001	5.99603E-003	0.00000E+000	3.87478E-003	3.59960E-001	-1.12827E+000	3.57800E+000	10	...........
	4	0.066667	6.53532E-001	5.99262E-003	0.00000E+000	3.91637E-003	3.59960E-001	-1.11892E+000	3.57800E+000	10	...........
	5	0.08	6.60636E-001	5.99576E-003	0.00000E+000	3.96102E-003	3.59960E-001	-1.12341E+000	3.57800E+000	10	...........
	6	0.093333	6.67659E-001	5.99231E-003	0.00000E+000	4.00082E-003	3.59960E-001	-1.12828E+000	3.57800E+000	10	...........
	7	0.106667	6.74487E-001	5.99425E-003	0.00000E+000	4.04305E-003	3.59960E-001	-1.11880E+000	3.57800E+000	10	...........
	8	0.12	6.81305E-001	5.99410E-003	0.00000E+000	4.08381E-003	3.59960E-001	-1.12326E+000	3.57800E+000	10	...........
	9	0.133333	6.87999E-001	5.99577E-003	0.00000E+000	4.12508E-003	3.59960E-001	-1.12840E+000	3.57800E+000	10	...........
	10	0.146667	6.94675E-001	5.99709E-003	0.00000E+000	4.16603E-003	3.59960E-001	-1.11914E+000	3.57800E+000	10	...........
	11	0.16	7.01249E-001	5.99726E-003	0.00000E+000	4.20557E-003	3.59960E-001	-1.12343E+000	3.57800E+000	10	...........
	12	0.173333	7.07822E-001	5.99476E-003	0.00000E+000	4.24323E-003	3.59960E-001	-1.12860E+000	3.57800E+000	10	...........
	13	0.186667	7.14358E-001	5.99719E-003	0.00000E+000	4.28414E-003	3.59960E-001	-1.11906E+000	3.57800E+000	10	...........
	14	0.2	7.20883E-001	5.99224E-003	0.00000E+000	4.31970E-003	3.59960E-001	-1.12284E+000	3.57800E+000	10	...........
	15	0.213333	7.27331E-001	5.99582E-003	0.00000E+000	4.36094E-003	3.59960E-001	-1.12835E+000	3.57800E+000	10	...........
	16	0.226667	7.33781E-001	5.99013E-003	0.00000E+000	4.39544E-003	3.59960E-001	-1.11880E+000	3.57800E+000	10	...........
	17	0.24	7.40194E-001	5.99511E-003	0.00000E+000	4.43754E-003	3.59960E-001	-1.12267E+000	3.57800E+000	10	...........
	18	0.253333	7.46608E-001	5.99348E-003	0.00000E+000	4.47478E-003	3.59960E-001	-1.12821E+000	3.57800E+000	10	...........
	19	0.266667	7.53000E-001	5.99133E-003	0.00000E+000	4.51147E-003	3.59960E-001	-1.11872E+000	3.57800E+000	10	...........
	20	0.28	7.59395E-001	5.99679E-003	0.00000E+000	4.55393E-003	3.59960E-001	-1.12268E+000	3.57800E+000	10	...........
	21	0.293333	7.65780E-001	5.99429E-003	0.00000E+000	4.59031E-003	3.59960E-001	-1.12825E+000	3.57800E+000	10	...........
	22	0.306667	7.72184E-001	5.98933E-003	0.00000E+000	4.62486E-003	3.59960E-001	-1.11849E+000	3.57800E+000	10	...........
	23	0.32	7.78520E-001	5.99821E-003	0.00000E+000	4.66973E-003	3.59960E-001	-1.12237E+000	3.57800E+000	10	...........
	24	0.333333	7.84847E-001	5.99761E-003	0.00000E+000	4.70721E-003	3.59960E-001	-1.12850E+000	3.57800E+000	10	...........
	25	0.346667	7.91149E-001	5.99549E-003	0.00000E+000	4.74333E-003	3.59960E-001	-1.11856E+000	3.57800E+000	10	...........
	26	0.36	7.97429E-001	5.99220E-003	0.00000E+000	4.77835E-003	3.59960E-001	-1.12235E+000	3.57800E+000	10	...........
	27	0.373333	8.03708E-001	5.99534E-003	0.00000E+000	4.81850E-003	3.59960E-001	-1.12847E+000	3.57800E+000	10	...........
	28	0.386667	8.09987E-001	5.99636E-003	0.00000E+000	4.85697E-003	3.59960E-001	-1.11835E+000	3.57800E+000	10	...........
	29	0.4	8.16277E-001	5.99193E-003	0.00000E+000	4.89108E-003	3.59960E-001	-1.12231E+000	3.57800E+000	10	...........
	30	0.413333	8.22557E-001	5.99407E-003	0.00000E+000	4.93047E-003	3.59960E-001	-1.12857E+000	3.57800E+000	10	...........
	31	0.426667	8.28813E-001	5.99258E-003	0.00000E+000	4.96673E-003	3.59960E-001	-1.11853E+000	3.57800E+000	10	...........
	32	0.44	8.35010E-001	5.99614E-003	0.00000E+000	5.00684E-003	3.59960E-001	-1.12223E+000	3.57800E+000	10	...........
	33	0.453333	8.41225E-001	5.99257E-003	0.00000E+000	5.04110E-003	3.59960E-001	-1.12842E+000	3.57800E+000	10	...........
	34	0.466667	8.47453E-001	5.99327E-003	0.00000E+000	5.07901E-003	3.59960E-001	-1.11868E+000	3.57800E+000	10	...........
	35	0.48	8.53641E-001	5.99358E-003	0.00000E+000	5.11637E-003	3.59960E-001	-1.12229E+000	3.57800E+000	10	...........
	36	0.493333	8.59835E-001	5.99504E-003	0.00000E+000	5.15475E-003	3.59960E-001	-1.12857E+000	3.57800E+000	10	...........
	37	0.506667	8.65976E-001	5.99721E-003	0.00000E+000	5.19344E-003	3.59960E-001	-1.11839E+000	3.57800E+000	10	...........
	38	0.52	8.72127E-001	5.98979E-003	0.00000E+000	5.22385E-003	3.59960E-001	-1.12166E+000	3.57800E+000	10	...........
	39	0.533333	8.78213E-001	5.99493E-003	0.00000E+000	5.26482E-003	3.59960E-001	-1.12839E+000	3.57800E+000	10	...........
	40	0.546667	8.84337E-001	5.99392E-003	0.00000E+000	5.30065E-003	3.59960E-001	-1.11822E+000	3.57800E+000	10	...........
	41	0.56	8.90427E-001	5.99631E-003	0.00000E+000	5.33927E-003	3.59960E-001	-1.12150E+000	3.57800E+000	10	...........
	42	0.573333	8.96479E-001	5.99186E-003	0.00000E+000	5.37158E-003	3.59960E-001	-1.12827E+000	3.57800E+000	10	...........
	43	0.586667	9.02517E-001	5.99245E-003	0.00000E+000	5.40828E-003	3.59960E-001	-1.11785E+000	3.57800E+000	10	...........
	44	0.6	9.08510E-001	5.99697E-003	0.00000E+000	5.44831E-003	3.59960E-001	-1.12119E+000	3.57800E+000	10	...........
	45	0.613333	9.14509E-001	5.99682E-003	0.00000E+000	5.48414E-003	3.59960E-001	-1.12836E+000	3.57800E+000	10	...........
	46	0.626667	9.20463E-001	5.99799E-003	0.00000E+000	5.52093E-003	3.59960E-001	-1.11805E+000	3.57910E+000	10	...........
	47	0.64	9.26372E-001	5.99589E-003	0.00000E+000	5.55442E-003	3.59960E-001	-1.12114E+000	3.57910E+000	10	...........
	48	0.653333	9.32286E-001	5.99132E-003	0.00000E+000	5.58563E-003	3.59960E-001	-1.12819E+000	3.57910E+000	10	...........
	49	0.666667	9.38150E-001	5.99237E-003	0.00000E+000	5.62174E-003	3.59960E-001	-1.11795E+000	3.57910E+000	10	...........
	50	0.68	9.43982E-001	5.99471E-003	0.00000E+000	5.65890E-003	3.59960E-001	-1.12138E+000	3.57910E+000	10	...........
	51	0.693333	9.49802E-001	5.99553E-003	0.00000E+000	5.69457E-003	3.59960E-001	-1.12816E+000	3.57910E+000	10	...........
	52	0.706667	9.55555E-001	5.99385E-003	0.00000E+000	5.72746E-003	3.59960E-001	-1.11778E+000	3.57910E+000	10	...........
	53	0.72	9.61276E-001	5.99437E-003	0.00000E+000	5.76224E-003	3.59960E-001	-1.12100E+000	3.57910E+000	10	...........
	54	0.733333	9.66939E-001	5.99492E-003	0.00000E+000	5.79672E-003	3.59960E-001	-1.12814E+000	3.57910E+000	10	...........
	55	0.746667	9.72606E-001	5.99352E-003	0.00000E+000	5.82934E-003	3.59960E-001	-1.11803E+000	3.57910E+000	10	...........
	56	0.76	9.78215E-001	5.99251E-003	0.00000E+000	5.86196E-003	3.59960E-001	-1.12115E+000	3.57910E+000	10	...........
	57	0.773333	9.83759E-001	5.99805E-003	0.00000E+000	5.90063E-003	3.59960E-001	-1.12819E+000	3.57910E+000	10	...........
	58	0.786667	9.89330E-001	5.99456E-003	0.00000E+000	5.93060E-003	3.59960E-001	-1.11785E+000	3.57910E+000	10	...........
	59	0.8	9.94776E-001	5.99292E-003	0.00000E+000	5.96161E-003	3.59960E-001	-1.12089E+000	3.57910E+000	10	...........
	60	0.808333	9.99240E-001	5.99176E-003	0.00000E+000	5.98720E-003	3.59960E-001	-1.12701E+000	3.57910E+000	10	...........
STARTTIMEOFFSET	QUANT	645.2048	Start Time Offset (s)