Folder: Tesis/Data/CV_CRGO300517_1/PWRCCD_CRGO300517_1/CHARGE_DISCHARGE (part 104)

File: CHARGE_#207.DTA
EXPLAIN
TAG	PWR800_CHARGE
TITLE	LABEL	PWR Cyclic Charge Discharge (Cell) - Charge Step	Test &Identifier
DATE	LABEL	22-6-2017	Date
TIME	LABEL	15:44:06	Time
NOTES	NOTES	3	&Notes...
	supercap test cell
	0.6mg
	6M KOH
PSTAT	PSTAT	IFC5000-01520	Potentiostat
CAPACITY	QUANT	1.00000E-003	Capacity (A-hr)
CELLTYPE	SELECTOR	1	&Cell Type
WORKINGCONNECTION	SELECTOR	0	&Working Lead
MAXCHARGETIME	VARIABLEANDUNITS	1.00000E+002	s	1.00000E+002	second(s)	Max &Charge Time
CHARGECURRENT	QUANT	6.00000E-003	&Charge Current (A)
VOLTAGEFINISH	TWOPARAM	F	1.00000E-003	3.60000E+003	&Voltage Finish	 I (A) < 	Max Time(s)
SAMPLETIME	QUANT	1.00000E-002	Sa&mple Period (s)
CHARGESTOPAT1	MULTIPARAM	4	1.00000E+000	Charge Stop At &1	Voltage > Limit	V
CHARGESTOPAT2	MULTIPARAM	0	0.00000E+000	Charge Stop At &2	None	N/A
AESBHCSELECTOR	TOGGLE	F	Save Both Half Cells
IRCOMP	TOGGLE	F	IR &Measure
EOC	QUANT	0	Open Circuit (V)
SEQUENCER	TOGGLE	TRUE	Run as Sequence
PSTATMODEL	IQUANT	53	Pstat Model
PSTATSECTION	LABEL	IFC5000-01520	Pstat Section
PSTATSERIALNO	LABEL	01520	Pstat Serial Number
CTRLMODE	IQUANT	0	Control Mode
ELECTROMETER	IQUANT	1	RE=0 or CS=1
IESTAB	IQUANT	0	I/E Stability
CASPEED	IQUANT	4	Control Amp Speed
CONVENTION	IQUANT	1	Current Convention
ICHRANGE	IQUANT	2	Ich Range
ICHRANGEMODE	TOGGLE	T	Ich Auto Range
ICHOFFSETENABLE	TOGGLE	F	Ich Offset Enable
ICHOFFSET	QUANT	0	Ich Offset (V)
ICHFILTER	IQUANT	1	Ich Filter
VCHRANGE	IQUANT	2	Vch Range
VCHRANGEMODE	TOGGLE	T	Vch Auto Range
VCHOFFSETENABLE	TOGGLE	F	Vch Offset Enable
VCHOFFSET	QUANT	0	Vch Offset (V)
VCHFILTER	IQUANT	1	Vch Filter
IERANGELOWERLIMIT	IQUANT	9	I/E Range Lower Limit
IERANGEMODE	TOGGLE	F	I/E AutoRange
IERANGE	IQUANT	10	I/E Range
ACHSELECT	IQUANT	1	Ach Select
ACHRANGE	IQUANT	2	Ach Range
ACHOFFSETENABLE	TOGGLE	F	Ach Offset Enable
ACHOFFSET	QUANT	0	Ach Offset (V)
ACHFILTER	IQUANT	1	Ach Filter
CABLEID	IQUANT	14	Cable ID
DCCALDATE	LABEL	20-10-2016	DC Calibration Date
ACCALDATE	LABEL	12/3/2015	AC Calibration Date
FRAMEWORKVERSION	QUANT	7.01	Framework Version
INSTRUMENTVERSION	LABEL	4.00	Instrument Version
CURVE	TABLE	65
	Pt	T	Vf	Im	Vu	Pwr	Sig	Ach	Temp	IERange	Over
	#	s	V	A	V	W	V	V	deg C	#	bits
	0	0.013333	6.06967E-001	5.99662E-003	0.00000E+000	3.63975E-003	3.59960E-001	-1.09186E+000	3.57670E+000	10	...........
	1	0.026667	6.15498E-001	5.99320E-003	0.00000E+000	3.68880E-003	3.59960E-001	-1.08650E+000	3.57670E+000	10	...........
	2	0.04	6.23286E-001	6.00010E-003	0.00000E+000	3.73978E-003	3.59960E-001	-1.08276E+000	3.57670E+000	10	...........
	3	0.053333	6.30635E-001	5.99566E-003	0.00000E+000	3.78107E-003	3.59960E-001	-1.09180E+000	3.57692E+000	10	...........
	4	0.066667	6.37728E-001	5.99782E-003	0.00000E+000	3.82497E-003	3.59960E-001	-1.08632E+000	3.57700E+000	10	...........
	5	0.08	6.44680E-001	5.99425E-003	0.00000E+000	3.86437E-003	3.59960E-001	-1.08251E+000	3.57700E+000	10	...........
	6	0.093333	6.51465E-001	5.99153E-003	0.00000E+000	3.90327E-003	3.59960E-001	-1.09174E+000	3.57700E+000	10	...........
	7	0.106667	6.58148E-001	5.99617E-003	0.00000E+000	3.94636E-003	3.59960E-001	-1.08647E+000	3.57700E+000	10	...........
	8	0.12	6.64696E-001	5.99232E-003	0.00000E+000	3.98307E-003	3.59960E-001	-1.08237E+000	3.57700E+000	10	...........
	9	0.133333	6.71241E-001	5.99249E-003	0.00000E+000	4.02240E-003	3.59960E-001	-1.09143E+000	3.57700E+000	10	...........
	10	0.146667	6.77739E-001	5.99836E-003	0.00000E+000	4.06532E-003	3.59960E-001	-1.08641E+000	3.57700E+000	10	...........
	11	0.16	6.84120E-001	5.99220E-003	0.00000E+000	4.09938E-003	3.59960E-001	-1.08253E+000	3.57700E+000	10	...........
	12	0.173333	6.90475E-001	5.99374E-003	0.00000E+000	4.13852E-003	3.59960E-001	-1.09163E+000	3.57700E+000	10	...........
	13	0.186667	6.96791E-001	5.99282E-003	0.00000E+000	4.17574E-003	3.59960E-001	-1.08630E+000	3.57700E+000	10	...........
	14	0.2	7.03064E-001	5.99119E-003	0.00000E+000	4.21219E-003	3.59960E-001	-1.08230E+000	3.57700E+000	10	...........
	15	0.213333	7.09303E-001	5.99460E-003	0.00000E+000	4.25199E-003	3.59960E-001	-1.09156E+000	3.57700E+000	10	...........
	16	0.226667	7.15531E-001	5.99882E-003	0.00000E+000	4.29234E-003	3.59960E-001	-1.08667E+000	3.57700E+000	10	...........
	17	0.24	7.21765E-001	5.99460E-003	0.00000E+000	4.32670E-003	3.59960E-001	-1.08223E+000	3.57700E+000	10	...........
	18	0.253333	7.28006E-001	5.99538E-003	0.00000E+000	4.36467E-003	3.59960E-001	-1.09148E+000	3.57700E+000	10	...........
	19	0.266667	7.34202E-001	5.99307E-003	0.00000E+000	4.40012E-003	3.59960E-001	-1.08598E+000	3.57700E+000	10	...........
	20	0.28	7.40354E-001	5.99456E-003	0.00000E+000	4.43810E-003	3.59960E-001	-1.08193E+000	3.57700E+000	10	...........
	21	0.293333	7.46538E-001	5.99121E-003	0.00000E+000	4.47267E-003	3.59960E-001	-1.09106E+000	3.57700E+000	10	...........
	22	0.306667	7.52716E-001	5.99806E-003	0.00000E+000	4.51484E-003	3.59960E-001	-1.08601E+000	3.57700E+000	10	...........
	23	0.32	7.58880E-001	5.99121E-003	0.00000E+000	4.54661E-003	3.59960E-001	-1.08173E+000	3.57700E+000	10	...........
	24	0.333333	7.64963E-001	5.99089E-003	0.00000E+000	4.58281E-003	3.59960E-001	-1.09066E+000	3.57700E+000	10	...........
	25	0.346667	7.71116E-001	5.99463E-003	0.00000E+000	4.62255E-003	3.59960E-001	-1.08611E+000	3.57700E+000	10	...........
	26	0.36	7.77238E-001	5.99259E-003	0.00000E+000	4.65767E-003	3.59960E-001	-1.08186E+000	3.57700E+000	10	...........
	27	0.373333	7.83320E-001	5.99309E-003	0.00000E+000	4.69451E-003	3.59960E-001	-1.09083E+000	3.57700E+000	10	...........
	28	0.386667	7.89447E-001	5.99504E-003	0.00000E+000	4.73277E-003	3.59960E-001	-1.08590E+000	3.57700E+000	10	...........
	29	0.4	7.95598E-001	5.99585E-003	0.00000E+000	4.77029E-003	3.59960E-001	-1.08161E+000	3.57700E+000	10	...........
	30	0.413333	8.01671E-001	5.99636E-003	0.00000E+000	4.80710E-003	3.59960E-001	-1.09054E+000	3.57700E+000	10	...........
	31	0.426667	8.07770E-001	5.99137E-003	0.00000E+000	4.83965E-003	3.59960E-001	-1.08608E+000	3.57700E+000	10	...........
	32	0.44	8.13853E-001	5.99095E-003	0.00000E+000	4.87575E-003	3.59960E-001	-1.08146E+000	3.57700E+000	10	...........
	33	0.453333	8.19949E-001	5.99632E-003	0.00000E+000	4.91667E-003	3.59960E-001	-1.09033E+000	3.57700E+000	10	...........
	34	0.466667	8.26006E-001	5.99172E-003	0.00000E+000	4.94919E-003	3.59960E-001	-1.08586E+000	3.57700E+000	10	...........
	35	0.48	8.32046E-001	5.99192E-003	0.00000E+000	4.98555E-003	3.59960E-001	-1.08152E+000	3.57700E+000	10	...........
	36	0.493333	8.38077E-001	5.99516E-003	0.00000E+000	5.02440E-003	3.59960E-001	-1.09038E+000	3.57700E+000	10	...........
	37	0.506667	8.44141E-001	5.99450E-003	0.00000E+000	5.06021E-003	3.59960E-001	-1.08621E+000	3.57700E+000	10	...........
	38	0.52	8.50172E-001	5.99697E-003	0.00000E+000	5.09846E-003	3.59960E-001	-1.08155E+000	3.57700E+000	10	...........
	39	0.533333	8.56143E-001	5.98977E-003	0.00000E+000	5.12810E-003	3.59960E-001	-1.09053E+000	3.57700E+000	10	...........
	40	0.546667	8.62178E-001	5.99589E-003	0.00000E+000	5.16952E-003	3.59960E-001	-1.08610E+000	3.57700E+000	10	...........
	41	0.56	8.68201E-001	5.99445E-003	0.00000E+000	5.20439E-003	3.59960E-001	-1.08171E+000	3.57700E+000	10	...........
	42	0.573333	8.74204E-001	5.99633E-003	0.00000E+000	5.24201E-003	3.59960E-001	-1.09045E+000	3.57700E+000	10	...........
	43	0.586667	8.80156E-001	5.99337E-003	0.00000E+000	5.27510E-003	3.59960E-001	-1.08590E+000	3.57700E+000	10	...........
	44	0.6	8.86103E-001	5.99521E-003	0.00000E+000	5.31237E-003	3.59960E-001	-1.08109E+000	3.57700E+000	10	...........
	45	0.613333	8.92002E-001	5.99516E-003	0.00000E+000	5.34769E-003	3.59960E-001	-1.08993E+000	3.57700E+000	10	...........
	46	0.626667	8.97928E-001	5.99410E-003	0.00000E+000	5.38227E-003	3.59960E-001	-1.08571E+000	3.57700E+000	10	...........
	47	0.64	9.03768E-001	5.99633E-003	0.00000E+000	5.41929E-003	3.59960E-001	-1.08139E+000	3.57700E+000	10	...........
	48	0.653333	9.09661E-001	5.99411E-003	0.00000E+000	5.45261E-003	3.59960E-001	-1.08995E+000	3.57700E+000	10	...........
	49	0.666667	9.15516E-001	5.99475E-003	0.00000E+000	5.48829E-003	3.59960E-001	-1.08583E+000	3.57700E+000	10	...........
	50	0.68	9.21365E-001	5.99431E-003	0.00000E+000	5.52295E-003	3.59960E-001	-1.08129E+000	3.57700E+000	10	...........
	51	0.693333	9.27167E-001	5.99802E-003	0.00000E+000	5.56116E-003	3.59960E-001	-1.08970E+000	3.57700E+000	10	...........
	52	0.706667	9.32929E-001	5.99140E-003	0.00000E+000	5.58955E-003	3.59960E-001	-1.08590E+000	3.57700E+000	10	...........
	53	0.72	9.38666E-001	5.99140E-003	0.00000E+000	5.62393E-003	3.59960E-001	-1.08125E+000	3.57700E+000	10	...........
	54	0.733333	9.44410E-001	5.99420E-003	0.00000E+000	5.66098E-003	3.59960E-001	-1.08967E+000	3.57700E+000	10	...........
	55	0.746667	9.50123E-001	5.99904E-003	0.00000E+000	5.69982E-003	3.59960E-001	-1.08573E+000	3.57700E+000	10	...........
	56	0.76	9.55748E-001	5.99346E-003	0.00000E+000	5.72823E-003	3.59960E-001	-1.08148E+000	3.57700E+000	10	...........
	57	0.773333	9.61361E-001	5.99331E-003	0.00000E+000	5.76174E-003	3.59960E-001	-1.08968E+000	3.57700E+000	10	...........
	58	0.786667	9.66957E-001	5.99074E-003	0.00000E+000	5.79278E-003	3.59960E-001	-1.08572E+000	3.57700E+000	10	...........
	59	0.8	9.72579E-001	5.99884E-003	0.00000E+000	5.83434E-003	3.59960E-001	-1.08114E+000	3.57700E+000	10	...........
	60	0.813333	9.78097E-001	5.99580E-003	0.00000E+000	5.86448E-003	3.59960E-001	-1.08977E+000	3.57700E+000	10	...........
	61	0.826667	9.83543E-001	5.99406E-003	0.00000E+000	5.89542E-003	3.59960E-001	-1.08614E+000	3.57700E+000	10	...........
	62	0.84	9.89011E-001	5.99341E-003	0.00000E+000	5.92755E-003	3.59960E-001	-1.08156E+000	3.57700E+000	10	...........
	63	0.853333	9.94387E-001	5.99558E-003	0.00000E+000	5.96192E-003	3.59960E-001	-1.08967E+000	3.57700E+000	10	...........
	64	0.861667	9.98810E-001	5.99661E-003	0.00000E+000	5.98947E-003	3.59960E-001	-1.08103E+000	3.57700E+000	10	...........
STARTTIMEOFFSET	QUANT	384.9917	Start Time Offset (s)

File: CHARGE_#208.DTA
EXPLAIN
TAG	PWR800_CHARGE
TITLE	LABEL	PWR Cyclic Charge Discharge (Cell) - Charge Step	Test &Identifier
DATE	LABEL	22-6-2017	Date
TIME	LABEL	15:44:08	Time
NOTES	NOTES	3	&Notes...
	supercap test cell
	0.6mg
	6M KOH
PSTAT	PSTAT	IFC5000-01520	Potentiostat
CAPACITY	QUANT	1.00000E-003	Capacity (A-hr)
CELLTYPE	SELECTOR	1	&Cell Type
WORKINGCONNECTION	SELECTOR	0	&Working Lead
MAXCHARGETIME	VARIABLEANDUNITS	1.00000E+002	s	1.00000E+002	second(s)	Max &Charge Time
CHARGECURRENT	QUANT	6.00000E-003	&Charge Current (A)
VOLTAGEFINISH	TWOPARAM	F	1.00000E-003	3.60000E+003	&Voltage Finish	 I (A) < 	Max Time(s)
SAMPLETIME	QUANT	1.00000E-002	Sa&mple Period (s)
CHARGESTOPAT1	MULTIPARAM	4	1.00000E+000	Charge Stop At &1	Voltage > Limit	V
CHARGESTOPAT2	MULTIPARAM	0	0.00000E+000	Charge Stop At &2	None	N/A
AESBHCSELECTOR	TOGGLE	F	Save Both Half Cells
IRCOMP	TOGGLE	F	IR &Measure
EOC	QUANT	0	Open Circuit (V)
SEQUENCER	TOGGLE	TRUE	Run as Sequence
PSTATMODEL	IQUANT	53	Pstat Model
PSTATSECTION	LABEL	IFC5000-01520	Pstat Section
PSTATSERIALNO	LABEL	01520	Pstat Serial Number
CTRLMODE	IQUANT	0	Control Mode
ELECTROMETER	IQUANT	1	RE=0 or CS=1
IESTAB	IQUANT	0	I/E Stability
CASPEED	IQUANT	4	Control Amp Speed
CONVENTION	IQUANT	1	Current Convention
ICHRANGE	IQUANT	2	Ich Range
ICHRANGEMODE	TOGGLE	T	Ich Auto Range
ICHOFFSETENABLE	TOGGLE	F	Ich Offset Enable
ICHOFFSET	QUANT	0	Ich Offset (V)
ICHFILTER	IQUANT	1	Ich Filter
VCHRANGE	IQUANT	2	Vch Range
VCHRANGEMODE	TOGGLE	T	Vch Auto Range
VCHOFFSETENABLE	TOGGLE	F	Vch Offset Enable
VCHOFFSET	QUANT	0	Vch Offset (V)
VCHFILTER	IQUANT	1	Vch Filter
IERANGELOWERLIMIT	IQUANT	9	I/E Range Lower Limit
IERANGEMODE	TOGGLE	F	I/E AutoRange
IERANGE	IQUANT	10	I/E Range
ACHSELECT	IQUANT	1	Ach Select
ACHRANGE	IQUANT	2	Ach Range
ACHOFFSETENABLE	TOGGLE	F	Ach Offset Enable
ACHOFFSET	QUANT	0	Ach Offset (V)
ACHFILTER	IQUANT	1	Ach Filter
CABLEID	IQUANT	14	Cable ID
DCCALDATE	LABEL	20-10-2016	DC Calibration Date
ACCALDATE	LABEL	12/3/2015	AC Calibration Date
FRAMEWORKVERSION	QUANT	7.01	Framework Version
INSTRUMENTVERSION	LABEL	4.00	Instrument Version
CURVE	TABLE	65
	Pt	T	Vf	Im	Vu	Pwr	Sig	Ach	Temp	IERange	Over
	#	s	V	A	V	W	V	V	deg C	#	bits
	0	0.013333	6.07350E-001	5.99377E-003	0.00000E+000	3.64032E-003	3.59960E-001	-1.09351E+000	3.57820E+000	10	...........
	1	0.026667	6.15858E-001	5.99765E-003	0.00000E+000	3.69370E-003	3.59960E-001	-1.08594E+000	3.57820E+000	10	...........
	2	0.04	6.23651E-001	5.99220E-003	0.00000E+000	3.73704E-003	3.59960E-001	-1.08391E+000	3.57820E+000	10	...........
	3	0.053333	6.30999E-001	5.99578E-003	0.00000E+000	3.78333E-003	3.59960E-001	-1.09378E+000	3.57820E+000	10	...........
	4	0.066667	6.38101E-001	5.99445E-003	0.00000E+000	3.82507E-003	3.59960E-001	-1.08601E+000	3.57820E+000	10	...........
	5	0.08	6.45009E-001	5.99380E-003	0.00000E+000	3.86606E-003	3.59960E-001	-1.08365E+000	3.57820E+000	10	...........
	6	0.093333	6.51770E-001	5.99223E-003	0.00000E+000	3.90556E-003	3.59960E-001	-1.09348E+000	3.57820E+000	10	...........
	7	0.106667	6.58423E-001	5.99576E-003	0.00000E+000	3.94775E-003	3.59960E-001	-1.08601E+000	3.57820E+000	10	...........
	8	0.12	6.64994E-001	5.99252E-003	0.00000E+000	3.98499E-003	3.59960E-001	-1.08367E+000	3.57820E+000	10	...........
	9	0.133333	6.71530E-001	5.99273E-003	0.00000E+000	4.02430E-003	3.59960E-001	-1.09337E+000	3.57820E+000	10	...........
	10	0.146667	6.77947E-001	5.99209E-003	0.00000E+000	4.06232E-003	3.59960E-001	-1.08589E+000	3.57820E+000	10	...........
	11	0.16	6.84309E-001	5.99632E-003	0.00000E+000	4.10333E-003	3.59960E-001	-1.08348E+000	3.57820E+000	10	...........
	12	0.173333	6.90645E-001	5.99198E-003	0.00000E+000	4.13833E-003	3.59960E-001	-1.09336E+000	3.57820E+000	10	...........
	13	0.186667	6.96976E-001	5.98990E-003	0.00000E+000	4.17482E-003	3.59960E-001	-1.08591E+000	3.57820E+000	10	...........
	14	0.2	7.03248E-001	5.99471E-003	0.00000E+000	4.21577E-003	3.59960E-001	-1.08342E+000	3.57820E+000	10	...........
	15	0.213333	7.09522E-001	5.99724E-003	0.00000E+000	4.25517E-003	3.59960E-001	-1.09318E+000	3.57820E+000	10	...........
	16	0.226667	7.15754E-001	5.99524E-003	0.00000E+000	4.29112E-003	3.59960E-001	-1.08617E+000	3.57820E+000	10	...........
	17	0.24	7.22032E-001	5.99212E-003	0.00000E+000	4.32651E-003	3.59960E-001	-1.08342E+000	3.57820E+000	10	...........
	18	0.253333	7.28206E-001	5.99430E-003	0.00000E+000	4.36509E-003	3.59960E-001	-1.09343E+000	3.57820E+000	10	...........
	19	0.266667	7.34426E-001	5.99231E-003	0.00000E+000	4.40091E-003	3.59960E-001	-1.08608E+000	3.57820E+000	10	...........
	20	0.28	7.40584E-001	5.99664E-003	0.00000E+000	4.44102E-003	3.59960E-001	-1.08328E+000	3.57820E+000	10	...........
	21	0.293333	7.46785E-001	5.99803E-003	0.00000E+000	4.47924E-003	3.59960E-001	-1.09320E+000	3.57820E+000	10	...........
	22	0.306667	7.52935E-001	5.99136E-003	0.00000E+000	4.51111E-003	3.59960E-001	-1.08618E+000	3.57820E+000	10	...........
	23	0.32	7.59097E-001	5.99223E-003	0.00000E+000	4.54868E-003	3.59960E-001	-1.08319E+000	3.57820E+000	10	...........
	24	0.333333	7.65255E-001	5.99691E-003	0.00000E+000	4.58916E-003	3.59960E-001	-1.09259E+000	3.57820E+000	10	...........
	25	0.346667	7.71413E-001	6.00114E-003	0.00000E+000	4.62936E-003	3.59960E-001	-1.08589E+000	3.57820E+000	10	...........
	26	0.36	7.77542E-001	5.99355E-003	0.00000E+000	4.66024E-003	3.59960E-001	-1.08291E+000	3.57820E+000	10	...........
	27	0.373333	7.83670E-001	5.99507E-003	0.00000E+000	4.69816E-003	3.59960E-001	-1.09282E+000	3.57820E+000	10	...........
	28	0.386667	7.89768E-001	5.99556E-003	0.00000E+000	4.73510E-003	3.59960E-001	-1.08597E+000	3.57820E+000	10	...........
	29	0.4	7.95905E-001	5.99552E-003	0.00000E+000	4.77186E-003	3.59960E-001	-1.08275E+000	3.57820E+000	10	...........
	30	0.413333	8.02011E-001	5.99306E-003	0.00000E+000	4.80650E-003	3.59960E-001	-1.09255E+000	3.57820E+000	10	...........
	31	0.426667	8.08063E-001	5.99401E-003	0.00000E+000	4.84354E-003	3.59960E-001	-1.08599E+000	3.57820E+000	10	...........
	32	0.44	8.14124E-001	5.99645E-003	0.00000E+000	4.88186E-003	3.59960E-001	-1.08293E+000	3.57820E+000	10	...........
	33	0.453333	8.20240E-001	5.99270E-003	0.00000E+000	4.91545E-003	3.59960E-001	-1.09243E+000	3.57820E+000	10	...........
	34	0.466667	8.26263E-001	5.99562E-003	0.00000E+000	4.95396E-003	3.59960E-001	-1.08599E+000	3.57820E+000	10	...........
	35	0.48	8.32311E-001	5.99387E-003	0.00000E+000	4.98877E-003	3.59960E-001	-1.08295E+000	3.57820E+000	10	...........
	36	0.493333	8.38353E-001	5.99895E-003	0.00000E+000	5.02924E-003	3.59960E-001	-1.09227E+000	3.57820E+000	10	...........
	37	0.506667	8.44381E-001	5.99885E-003	0.00000E+000	5.06532E-003	3.59960E-001	-1.08613E+000	3.57820E+000	10	...........
	38	0.52	8.50404E-001	5.99293E-003	0.00000E+000	5.09641E-003	3.59960E-001	-1.08283E+000	3.57820E+000	10	...........
	39	0.533333	8.56375E-001	5.99157E-003	0.00000E+000	5.13103E-003	3.59960E-001	-1.09223E+000	3.57780E+000	10	...........
	40	0.546667	8.62393E-001	5.99280E-003	0.00000E+000	5.16815E-003	3.59960E-001	-1.08611E+000	3.57740E+000	10	...........
	41	0.56	8.68389E-001	5.99440E-003	0.00000E+000	5.20547E-003	3.59960E-001	-1.08287E+000	3.57740E+000	10	...........
	42	0.573333	8.74310E-001	5.99248E-003	0.00000E+000	5.23928E-003	3.59960E-001	-1.09245E+000	3.57740E+000	10	...........
	43	0.586667	8.80290E-001	5.99108E-003	0.00000E+000	5.27389E-003	3.59960E-001	-1.08645E+000	3.57740E+000	10	...........
	44	0.6	8.86282E-001	5.99369E-003	0.00000E+000	5.31210E-003	3.59960E-001	-1.08250E+000	3.57740E+000	10	...........
	45	0.613333	8.92215E-001	5.99705E-003	0.00000E+000	5.35066E-003	3.59960E-001	-1.09206E+000	3.57740E+000	10	...........
	46	0.626667	8.98149E-001	5.99152E-003	0.00000E+000	5.38127E-003	3.59960E-001	-1.08626E+000	3.57740E+000	10	...........
	47	0.64	9.04027E-001	5.99784E-003	0.00000E+000	5.42221E-003	3.59960E-001	-1.08261E+000	3.57740E+000	10	...........
	48	0.653333	9.09951E-001	5.99546E-003	0.00000E+000	5.45557E-003	3.59960E-001	-1.09183E+000	3.57740E+000	10	...........
	49	0.666667	9.15802E-001	5.99277E-003	0.00000E+000	5.48819E-003	3.59960E-001	-1.08617E+000	3.57740E+000	10	...........
	50	0.68	9.21639E-001	5.98885E-003	0.00000E+000	5.51955E-003	3.59960E-001	-1.08215E+000	3.57740E+000	10	...........
	51	0.693333	9.27423E-001	5.99221E-003	0.00000E+000	5.55731E-003	3.59960E-001	-1.09171E+000	3.57740E+000	10	...........
	52	0.706667	9.33212E-001	5.99279E-003	0.00000E+000	5.59254E-003	3.59960E-001	-1.08629E+000	3.57740E+000	10	...........
	53	0.72	9.38985E-001	5.99293E-003	0.00000E+000	5.62727E-003	3.59960E-001	-1.08251E+000	3.57740E+000	10	...........
	54	0.733333	9.44656E-001	5.99294E-003	0.00000E+000	5.66126E-003	3.59960E-001	-1.09176E+000	3.57740E+000	10	...........
	55	0.746667	9.50383E-001	5.99134E-003	0.00000E+000	5.69407E-003	3.59960E-001	-1.08629E+000	3.57740E+000	10	...........
	56	0.76	9.56063E-001	5.99714E-003	0.00000E+000	5.73364E-003	3.59960E-001	-1.08247E+000	3.57740E+000	10	...........
	57	0.773333	9.61677E-001	5.99545E-003	0.00000E+000	5.76569E-003	3.59960E-001	-1.09169E+000	3.57740E+000	10	...........
	58	0.786667	9.67262E-001	5.99117E-003	0.00000E+000	5.79503E-003	3.59960E-001	-1.08639E+000	3.57740E+000	10	...........
	59	0.8	9.72839E-001	5.99326E-003	0.00000E+000	5.83048E-003	3.59960E-001	-1.08244E+000	3.57740E+000	10	...........
	60	0.813333	9.78352E-001	5.99774E-003	0.00000E+000	5.86791E-003	3.59960E-001	-1.09145E+000	3.57740E+000	10	...........
	61	0.826667	9.83840E-001	5.99236E-003	0.00000E+000	5.89553E-003	3.59960E-001	-1.08661E+000	3.57740E+000	10	...........
	62	0.84	9.89277E-001	5.99369E-003	0.00000E+000	5.92942E-003	3.59960E-001	-1.08242E+000	3.57740E+000	10	...........
	63	0.853333	9.94686E-001	5.99924E-003	0.00000E+000	5.96735E-003	3.59960E-001	-1.09165E+000	3.57740E+000	10	...........
	64	0.861667	9.99098E-001	5.98882E-003	0.00000E+000	5.98341E-003	3.59960E-001	-1.08106E+000	3.57740E+000	10	...........
STARTTIMEOFFSET	QUANT	386.705	Start Time Offset (s)