Folder: Tesis/Data/CV_CRGO300517_1/PWRCCD_CRGO300517_1/CHARGE_DISCHARGE (part 38)

File: CHARGE_#75.DTA
EXPLAIN
TAG	PWR800_CHARGE
TITLE	LABEL	PWR Cyclic Charge Discharge (Cell) - Charge Step	Test &Identifier
DATE	LABEL	22-6-2017	Date
TIME	LABEL	15:38:24	Time
NOTES	NOTES	3	&Notes...
	supercap test cell
	0.6mg
	6M KOH
PSTAT	PSTAT	IFC5000-01520	Potentiostat
CAPACITY	QUANT	1.00000E-003	Capacity (A-hr)
CELLTYPE	SELECTOR	1	&Cell Type
WORKINGCONNECTION	SELECTOR	0	&Working Lead
MAXCHARGETIME	VARIABLEANDUNITS	1.00000E+002	s	1.00000E+002	second(s)	Max &Charge Time
CHARGECURRENT	QUANT	6.00000E-003	&Charge Current (A)
VOLTAGEFINISH	TWOPARAM	F	1.00000E-003	3.60000E+003	&Voltage Finish	 I (A) < 	Max Time(s)
SAMPLETIME	QUANT	1.00000E-002	Sa&mple Period (s)
CHARGESTOPAT1	MULTIPARAM	4	1.00000E+000	Charge Stop At &1	Voltage > Limit	V
CHARGESTOPAT2	MULTIPARAM	0	0.00000E+000	Charge Stop At &2	None	N/A
AESBHCSELECTOR	TOGGLE	F	Save Both Half Cells
IRCOMP	TOGGLE	F	IR &Measure
EOC	QUANT	0	Open Circuit (V)
SEQUENCER	TOGGLE	TRUE	Run as Sequence
PSTATMODEL	IQUANT	53	Pstat Model
PSTATSECTION	LABEL	IFC5000-01520	Pstat Section
PSTATSERIALNO	LABEL	01520	Pstat Serial Number
CTRLMODE	IQUANT	0	Control Mode
ELECTROMETER	IQUANT	1	RE=0 or CS=1
IESTAB	IQUANT	0	I/E Stability
CASPEED	IQUANT	4	Control Amp Speed
CONVENTION	IQUANT	1	Current Convention
ICHRANGE	IQUANT	2	Ich Range
ICHRANGEMODE	TOGGLE	T	Ich Auto Range
ICHOFFSETENABLE	TOGGLE	F	Ich Offset Enable
ICHOFFSET	QUANT	0	Ich Offset (V)
ICHFILTER	IQUANT	1	Ich Filter
VCHRANGE	IQUANT	2	Vch Range
VCHRANGEMODE	TOGGLE	T	Vch Auto Range
VCHOFFSETENABLE	TOGGLE	F	Vch Offset Enable
VCHOFFSET	QUANT	0	Vch Offset (V)
VCHFILTER	IQUANT	1	Vch Filter
IERANGELOWERLIMIT	IQUANT	9	I/E Range Lower Limit
IERANGEMODE	TOGGLE	F	I/E AutoRange
IERANGE	IQUANT	10	I/E Range
ACHSELECT	IQUANT	1	Ach Select
ACHRANGE	IQUANT	2	Ach Range
ACHOFFSETENABLE	TOGGLE	F	Ach Offset Enable
ACHOFFSET	QUANT	0	Ach Offset (V)
ACHFILTER	IQUANT	1	Ach Filter
CABLEID	IQUANT	14	Cable ID
DCCALDATE	LABEL	20-10-2016	DC Calibration Date
ACCALDATE	LABEL	12/3/2015	AC Calibration Date
FRAMEWORKVERSION	QUANT	7.01	Framework Version
INSTRUMENTVERSION	LABEL	4.00	Instrument Version
CURVE	TABLE	72
	Pt	T	Vf	Im	Vu	Pwr	Sig	Ach	Temp	IERange	Over
	#	s	V	A	V	W	V	V	deg C	#	bits
	0	0.013333	5.82526E-001	5.99358E-003	0.00000E+000	3.49142E-003	3.59960E-001	-1.05520E+000	3.57700E+000	10	...........
	1	0.026667	5.90715E-001	5.99349E-003	0.00000E+000	3.54044E-003	3.59960E-001	-1.06211E+000	3.57700E+000	10	...........
	2	0.04	5.98179E-001	5.99506E-003	0.00000E+000	3.58612E-003	3.59960E-001	-1.05155E+000	3.57711E+000	10	...........
	3	0.053333	6.05212E-001	5.99289E-003	0.00000E+000	3.62697E-003	3.59960E-001	-1.05530E+000	3.57730E+000	10	...........
	4	0.066667	6.12098E-001	5.98894E-003	0.00000E+000	3.66582E-003	3.59960E-001	-1.06210E+000	3.57730E+000	10	...........
	5	0.08	6.18803E-001	5.99538E-003	0.00000E+000	3.70996E-003	3.59960E-001	-1.05130E+000	3.57730E+000	10	...........
	6	0.093333	6.25303E-001	5.99187E-003	0.00000E+000	3.74674E-003	3.59960E-001	-1.05508E+000	3.57730E+000	10	...........
	7	0.106667	6.31680E-001	5.99309E-003	0.00000E+000	3.78572E-003	3.59960E-001	-1.06237E+000	3.57730E+000	10	...........
	8	0.12	6.37970E-001	5.99394E-003	0.00000E+000	3.82395E-003	3.59960E-001	-1.05122E+000	3.57730E+000	10	...........
	9	0.133333	6.44201E-001	5.99352E-003	0.00000E+000	3.86103E-003	3.59960E-001	-1.05484E+000	3.57730E+000	10	...........
	10	0.146667	6.50392E-001	5.99260E-003	0.00000E+000	3.89754E-003	3.59960E-001	-1.06163E+000	3.57730E+000	10	...........
	11	0.16	6.56578E-001	5.99741E-003	0.00000E+000	3.93777E-003	3.59960E-001	-1.05090E+000	3.57730E+000	10	...........
	12	0.173333	6.62663E-001	5.99493E-003	0.00000E+000	3.97262E-003	3.59960E-001	-1.05466E+000	3.57730E+000	10	...........
	13	0.186667	6.68711E-001	5.98942E-003	0.00000E+000	4.00519E-003	3.59960E-001	-1.06172E+000	3.57730E+000	10	...........
	14	0.2	6.74738E-001	5.99547E-003	0.00000E+000	4.04537E-003	3.59960E-001	-1.05079E+000	3.57730E+000	10	...........
	15	0.213333	6.80675E-001	5.99347E-003	0.00000E+000	4.07960E-003	3.59960E-001	-1.05432E+000	3.57730E+000	10	...........
	16	0.226667	6.86598E-001	5.99515E-003	0.00000E+000	4.11626E-003	3.59960E-001	-1.06198E+000	3.57730E+000	10	...........
	17	0.24	6.92545E-001	5.99182E-003	0.00000E+000	4.14961E-003	3.59960E-001	-1.05082E+000	3.57730E+000	10	...........
	18	0.253333	6.98445E-001	5.99214E-003	0.00000E+000	4.18518E-003	3.59960E-001	-1.05434E+000	3.57730E+000	10	...........
	19	0.266667	7.04363E-001	5.99523E-003	0.00000E+000	4.22282E-003	3.59960E-001	-1.06162E+000	3.57730E+000	10	...........
	20	0.28	7.10241E-001	5.99589E-003	0.00000E+000	4.25852E-003	3.59960E-001	-1.05041E+000	3.57730E+000	10	...........
	21	0.293333	7.16098E-001	5.99584E-003	0.00000E+000	4.29360E-003	3.59960E-001	-1.05421E+000	3.57730E+000	10	...........
	22	0.306667	7.22024E-001	5.98827E-003	0.00000E+000	4.32368E-003	3.59960E-001	-1.06159E+000	3.57730E+000	10	...........
	23	0.32	7.27888E-001	5.99140E-003	0.00000E+000	4.36107E-003	3.59960E-001	-1.05058E+000	3.57730E+000	10	...........
	24	0.333333	7.33704E-001	5.99227E-003	0.00000E+000	4.39655E-003	3.59960E-001	-1.05378E+000	3.57730E+000	10	...........
	25	0.346667	7.39578E-001	5.99396E-003	0.00000E+000	4.43300E-003	3.59960E-001	-1.06155E+000	3.57730E+000	10	...........
	26	0.36	7.45451E-001	5.99192E-003	0.00000E+000	4.46669E-003	3.59960E-001	-1.05062E+000	3.57730E+000	10	...........
	27	0.373333	7.51305E-001	5.99783E-003	0.00000E+000	4.50620E-003	3.59960E-001	-1.05431E+000	3.57730E+000	10	...........
	28	0.386667	7.57163E-001	5.99893E-003	0.00000E+000	4.54217E-003	3.59960E-001	-1.06180E+000	3.57730E+000	10	...........
	29	0.4	7.62956E-001	5.99564E-003	0.00000E+000	4.57441E-003	3.59960E-001	-1.05067E+000	3.57730E+000	10	...........
	30	0.413333	7.68819E-001	5.99439E-003	0.00000E+000	4.60860E-003	3.59960E-001	-1.05400E+000	3.57730E+000	10	...........
	31	0.426667	7.74643E-001	5.99178E-003	0.00000E+000	4.64149E-003	3.59960E-001	-1.06179E+000	3.57730E+000	10	...........
	32	0.44	7.80443E-001	5.99471E-003	0.00000E+000	4.67853E-003	3.59960E-001	-1.05073E+000	3.57730E+000	10	...........
	33	0.453333	7.86251E-001	5.99574E-003	0.00000E+000	4.71416E-003	3.59960E-001	-1.05407E+000	3.57730E+000	10	...........
	34	0.466667	7.92083E-001	5.99187E-003	0.00000E+000	4.74606E-003	3.59960E-001	-1.06134E+000	3.57730E+000	10	...........
	35	0.48	7.97947E-001	5.99169E-003	0.00000E+000	4.78105E-003	3.59960E-001	-1.05016E+000	3.57730E+000	10	...........
	36	0.493333	8.03760E-001	5.99268E-003	0.00000E+000	4.81667E-003	3.59960E-001	-1.05350E+000	3.57730E+000	10	...........
	37	0.506667	8.09562E-001	5.99124E-003	0.00000E+000	4.85028E-003	3.59960E-001	-1.06156E+000	3.57730E+000	10	...........
	38	0.52	8.15336E-001	5.99299E-003	0.00000E+000	4.88630E-003	3.59960E-001	-1.05033E+000	3.57730E+000	10	...........
	39	0.533333	8.21210E-001	5.99146E-003	0.00000E+000	4.92025E-003	3.59960E-001	-1.05317E+000	3.57730E+000	10	...........
	40	0.546667	8.27006E-001	5.99353E-003	0.00000E+000	4.95669E-003	3.59960E-001	-1.06133E+000	3.57730E+000	10	...........
	41	0.56	8.32796E-001	5.99356E-003	0.00000E+000	4.99141E-003	3.59960E-001	-1.05019E+000	3.57730E+000	10	...........
	42	0.573333	8.38577E-001	5.99189E-003	0.00000E+000	5.02466E-003	3.59960E-001	-1.05352E+000	3.57730E+000	10	...........
	43	0.586667	8.44391E-001	5.99856E-003	0.00000E+000	5.06513E-003	3.59960E-001	-1.06136E+000	3.57730E+000	10	...........
	44	0.6	8.50172E-001	5.99687E-003	0.00000E+000	5.09837E-003	3.59960E-001	-1.04994E+000	3.57730E+000	10	...........
	45	0.613333	8.55941E-001	5.99458E-003	0.00000E+000	5.13101E-003	3.59960E-001	-1.05336E+000	3.57730E+000	10	...........
	46	0.626667	8.61703E-001	5.99271E-003	0.00000E+000	5.16393E-003	3.59960E-001	-1.06125E+000	3.57730E+000	10	...........
	47	0.64	8.67476E-001	5.99079E-003	0.00000E+000	5.19687E-003	3.59960E-001	-1.05023E+000	3.57730E+000	10	...........
	48	0.653333	8.73263E-001	5.99368E-003	0.00000E+000	5.23406E-003	3.59960E-001	-1.05300E+000	3.57730E+000	10	...........
	49	0.666667	8.79017E-001	5.99054E-003	0.00000E+000	5.26578E-003	3.59960E-001	-1.06106E+000	3.57730E+000	10	...........
	50	0.68	8.84818E-001	5.99556E-003	0.00000E+000	5.30498E-003	3.59960E-001	-1.05003E+000	3.57730E+000	10	...........
	51	0.693333	8.90496E-001	5.99121E-003	0.00000E+000	5.33515E-003	3.59960E-001	-1.05331E+000	3.57730E+000	10	...........
	52	0.706667	8.96241E-001	5.99302E-003	0.00000E+000	5.37119E-003	3.59960E-001	-1.06158E+000	3.57730E+000	10	...........
	53	0.72	9.01954E-001	5.99233E-003	0.00000E+000	5.40481E-003	3.59960E-001	-1.05033E+000	3.57730E+000	10	...........
	54	0.733333	9.07669E-001	5.99140E-003	0.00000E+000	5.43821E-003	3.59960E-001	-1.05317E+000	3.57730E+000	10	...........
	55	0.746667	9.13399E-001	5.99352E-003	0.00000E+000	5.47448E-003	3.59960E-001	-1.06142E+000	3.57730E+000	10	...........
	56	0.76	9.19097E-001	5.99407E-003	0.00000E+000	5.50913E-003	3.59960E-001	-1.05006E+000	3.57730E+000	10	...........
	57	0.773333	9.24791E-001	5.99608E-003	0.00000E+000	5.54512E-003	3.59960E-001	-1.05317E+000	3.57730E+000	10	...........
	58	0.786667	9.30418E-001	5.99583E-003	0.00000E+000	5.57863E-003	3.59960E-001	-1.06126E+000	3.57730E+000	10	...........
	59	0.8	9.35999E-001	5.99302E-003	0.00000E+000	5.60946E-003	3.59960E-001	-1.04961E+000	3.57730E+000	10	...........
	60	0.813333	9.41574E-001	5.99226E-003	0.00000E+000	5.64215E-003	3.59960E-001	-1.05266E+000	3.57730E+000	10	...........
	61	0.826667	9.47172E-001	5.99323E-003	0.00000E+000	5.67662E-003	3.59960E-001	-1.06100E+000	3.57730E+000	10	...........
	62	0.84	9.52694E-001	5.99172E-003	0.00000E+000	5.70827E-003	3.59960E-001	-1.04985E+000	3.57730E+000	10	...........
	63	0.853333	9.58216E-001	5.99249E-003	0.00000E+000	5.74210E-003	3.59960E-001	-1.05275E+000	3.57730E+000	10	...........
	64	0.866667	9.63698E-001	5.99431E-003	0.00000E+000	5.77671E-003	3.59960E-001	-1.06102E+000	3.57730E+000	10	...........
	65	0.88	9.69173E-001	5.99036E-003	0.00000E+000	5.80569E-003	3.59960E-001	-1.04960E+000	3.57730E+000	10	...........
	66	0.893333	9.74637E-001	5.99487E-003	0.00000E+000	5.84282E-003	3.59960E-001	-1.05254E+000	3.57730E+000	10	...........
	67	0.906667	9.80018E-001	5.99184E-003	0.00000E+000	5.87211E-003	3.59960E-001	-1.06127E+000	3.57730E+000	10	...........
	68	0.92	9.85400E-001	5.99831E-003	0.00000E+000	5.91073E-003	3.59960E-001	-1.04952E+000	3.57730E+000	10	...........
	69	0.933333	9.90778E-001	5.99391E-003	0.00000E+000	5.93863E-003	3.59960E-001	-1.05226E+000	3.57730E+000	10	...........
	70	0.946667	9.96076E-001	5.99046E-003	0.00000E+000	5.96696E-003	3.59960E-001	-1.06081E+000	3.57730E+000	10	...........
	71	0.95167	9.99751E-001	5.99146E-003	0.00000E+000	5.98996E-003	3.59960E-001	-1.04255E+000	3.57730E+000	10	...........
STARTTIMEOFFSET	QUANT	148.5383	Start Time Offset (s)

File: CHARGE_#76.DTA
EXPLAIN
TAG	PWR800_CHARGE
TITLE	LABEL	PWR Cyclic Charge Discharge (Cell) - Charge Step	Test &Identifier
DATE	LABEL	22-6-2017	Date
TIME	LABEL	15:38:26	Time
NOTES	NOTES	3	&Notes...
	supercap test cell
	0.6mg
	6M KOH
PSTAT	PSTAT	IFC5000-01520	Potentiostat
CAPACITY	QUANT	1.00000E-003	Capacity (A-hr)
CELLTYPE	SELECTOR	1	&Cell Type
WORKINGCONNECTION	SELECTOR	0	&Working Lead
MAXCHARGETIME	VARIABLEANDUNITS	1.00000E+002	s	1.00000E+002	second(s)	Max &Charge Time
CHARGECURRENT	QUANT	6.00000E-003	&Charge Current (A)
VOLTAGEFINISH	TWOPARAM	F	1.00000E-003	3.60000E+003	&Voltage Finish	 I (A) < 	Max Time(s)
SAMPLETIME	QUANT	1.00000E-002	Sa&mple Period (s)
CHARGESTOPAT1	MULTIPARAM	4	1.00000E+000	Charge Stop At &1	Voltage > Limit	V
CHARGESTOPAT2	MULTIPARAM	0	0.00000E+000	Charge Stop At &2	None	N/A
AESBHCSELECTOR	TOGGLE	F	Save Both Half Cells
IRCOMP	TOGGLE	F	IR &Measure
EOC	QUANT	0	Open Circuit (V)
SEQUENCER	TOGGLE	TRUE	Run as Sequence
PSTATMODEL	IQUANT	53	Pstat Model
PSTATSECTION	LABEL	IFC5000-01520	Pstat Section
PSTATSERIALNO	LABEL	01520	Pstat Serial Number
CTRLMODE	IQUANT	0	Control Mode
ELECTROMETER	IQUANT	1	RE=0 or CS=1
IESTAB	IQUANT	0	I/E Stability
CASPEED	IQUANT	4	Control Amp Speed
CONVENTION	IQUANT	1	Current Convention
ICHRANGE	IQUANT	2	Ich Range
ICHRANGEMODE	TOGGLE	T	Ich Auto Range
ICHOFFSETENABLE	TOGGLE	F	Ich Offset Enable
ICHOFFSET	QUANT	0	Ich Offset (V)
ICHFILTER	IQUANT	1	Ich Filter
VCHRANGE	IQUANT	2	Vch Range
VCHRANGEMODE	TOGGLE	T	Vch Auto Range
VCHOFFSETENABLE	TOGGLE	F	Vch Offset Enable
VCHOFFSET	QUANT	0	Vch Offset (V)
VCHFILTER	IQUANT	1	Vch Filter
IERANGELOWERLIMIT	IQUANT	9	I/E Range Lower Limit
IERANGEMODE	TOGGLE	F	I/E AutoRange
IERANGE	IQUANT	10	I/E Range
ACHSELECT	IQUANT	1	Ach Select
ACHRANGE	IQUANT	2	Ach Range
ACHOFFSETENABLE	TOGGLE	F	Ach Offset Enable
ACHOFFSET	QUANT	0	Ach Offset (V)
ACHFILTER	IQUANT	1	Ach Filter
CABLEID	IQUANT	14	Cable ID
DCCALDATE	LABEL	20-10-2016	DC Calibration Date
ACCALDATE	LABEL	12/3/2015	AC Calibration Date
FRAMEWORKVERSION	QUANT	7.01	Framework Version
INSTRUMENTVERSION	LABEL	4.00	Instrument Version
CURVE	TABLE	72
	Pt	T	Vf	Im	Vu	Pwr	Sig	Ach	Temp	IERange	Over
	#	s	V	A	V	W	V	V	deg C	#	bits
	0	0.013333	5.82763E-001	5.99396E-003	0.00000E+000	3.49306E-003	3.59960E-001	-1.05497E+000	3.57850E+000	10	...........
	1	0.026667	5.90946E-001	5.99586E-003	0.00000E+000	3.54323E-003	3.59960E-001	-1.06340E+000	3.57850E+000	10	...........
	2	0.04	5.98467E-001	5.99281E-003	0.00000E+000	3.58650E-003	3.59960E-001	-1.05201E+000	3.57850E+000	10	...........
	3	0.053333	6.05507E-001	5.99485E-003	0.00000E+000	3.62992E-003	3.59960E-001	-1.05447E+000	3.57850E+000	10	...........
	4	0.066667	6.12343E-001	5.99641E-003	0.00000E+000	3.67186E-003	3.59960E-001	-1.06299E+000	3.57850E+000	10	...........
	5	0.08	6.19062E-001	5.99491E-003	0.00000E+000	3.71122E-003	3.59960E-001	-1.05125E+000	3.57850E+000	10	...........
	6	0.093333	6.25552E-001	5.99466E-003	0.00000E+000	3.74997E-003	3.59960E-001	-1.05431E+000	3.57850E+000	10	...........
	7	0.106667	6.31894E-001	5.99321E-003	0.00000E+000	3.78707E-003	3.59960E-001	-1.06315E+000	3.57850E+000	10	...........
	8	0.12	6.38238E-001	5.99133E-003	0.00000E+000	3.82389E-003	3.59960E-001	-1.05136E+000	3.57850E+000	10	...........
	9	0.133333	6.44550E-001	5.99188E-003	0.00000E+000	3.86207E-003	3.59960E-001	-1.05411E+000	3.57850E+000	10	...........
	10	0.146667	6.50750E-001	5.99643E-003	0.00000E+000	3.90218E-003	3.59960E-001	-1.06288E+000	3.57850E+000	10	...........
	11	0.16	6.56838E-001	5.99179E-003	0.00000E+000	3.93564E-003	3.59960E-001	-1.05119E+000	3.57850E+000	10	...........
	12	0.173333	6.62956E-001	5.99252E-003	0.00000E+000	3.97277E-003	3.59960E-001	-1.05427E+000	3.57850E+000	10	...........
	13	0.186667	6.69024E-001	5.99233E-003	0.00000E+000	4.00901E-003	3.59960E-001	-1.06295E+000	3.57850E+000	10	...........
	14	0.2	6.75014E-001	5.99494E-003	0.00000E+000	4.04667E-003	3.59960E-001	-1.05132E+000	3.57850E+000	10	...........
	15	0.213333	6.80985E-001	5.99207E-003	0.00000E+000	4.08051E-003	3.59960E-001	-1.05399E+000	3.57850E+000	10	...........
	16	0.226667	6.86966E-001	5.99406E-003	0.00000E+000	4.11772E-003	3.59960E-001	-1.06277E+000	3.57850E+000	10	...........
	17	0.24	6.92973E-001	5.99650E-003	0.00000E+000	4.15542E-003	3.59960E-001	-1.05129E+000	3.57850E+000	10	...........
	18	0.253333	6.98876E-001	5.99642E-003	0.00000E+000	4.19076E-003	3.59960E-001	-1.05411E+000	3.57850E+000	10	...........
	19	0.266667	7.04772E-001	5.99343E-003	0.00000E+000	4.22400E-003	3.59960E-001	-1.06278E+000	3.57850E+000	10	...........
	20	0.28	7.10682E-001	5.99639E-003	0.00000E+000	4.26153E-003	3.59960E-001	-1.05109E+000	3.57850E+000	10	...........
	21	0.293333	7.16593E-001	5.99443E-003	0.00000E+000	4.29556E-003	3.59960E-001	-1.05390E+000	3.57850E+000	10	...........
	22	0.306667	7.22490E-001	5.99181E-003	0.00000E+000	4.32902E-003	3.59960E-001	-1.06310E+000	3.57850E+000	10	...........
	23	0.32	7.28366E-001	5.99549E-003	0.00000E+000	4.36691E-003	3.59960E-001	-1.05128E+000	3.57850E+000	10	...........
	24	0.333333	7.34179E-001	5.99556E-003	0.00000E+000	4.40182E-003	3.59960E-001	-1.05380E+000	3.57850E+000	10	...........
	25	0.346667	7.39998E-001	5.99931E-003	0.00000E+000	4.43948E-003	3.59960E-001	-1.06269E+000	3.57850E+000	10	...........
	26	0.36	7.45878E-001	6.00007E-003	0.00000E+000	4.47532E-003	3.59960E-001	-1.05091E+000	3.57850E+000	10	...........
	27	0.373333	7.51756E-001	5.99225E-003	0.00000E+000	4.50471E-003	3.59960E-001	-1.05337E+000	3.57850E+000	10	...........
	28	0.386667	7.57639E-001	5.99627E-003	0.00000E+000	4.54301E-003	3.59960E-001	-1.06246E+000	3.57746E+000	10	...........
	29	0.4	7.63465E-001	5.99101E-003	0.00000E+000	4.57393E-003	3.59960E-001	-1.05075E+000	3.57720E+000	10	...........
	30	0.413333	7.69327E-001	5.99270E-003	0.00000E+000	4.61035E-003	3.59960E-001	-1.05328E+000	3.57720E+000	10	...........
	31	0.426667	7.75217E-001	5.99555E-003	0.00000E+000	4.64786E-003	3.59960E-001	-1.06227E+000	3.57720E+000	10	...........
	32	0.44	7.81062E-001	5.99375E-003	0.00000E+000	4.68149E-003	3.59960E-001	-1.05096E+000	3.57720E+000	10	...........
	33	0.453333	7.86850E-001	5.99107E-003	0.00000E+000	4.71407E-003	3.59960E-001	-1.05337E+000	3.57720E+000	10	...........
	34	0.466667	7.92672E-001	5.99525E-003	0.00000E+000	4.75227E-003	3.59960E-001	-1.06250E+000	3.57720E+000	10	...........
	35	0.48	7.98507E-001	5.99400E-003	0.00000E+000	4.78625E-003	3.59960E-001	-1.05065E+000	3.57720E+000	10	...........
	36	0.493333	8.04308E-001	5.99422E-003	0.00000E+000	4.82120E-003	3.59960E-001	-1.05328E+000	3.57720E+000	10	...........
	37	0.506667	8.10120E-001	5.99204E-003	0.00000E+000	4.85427E-003	3.59960E-001	-1.06260E+000	3.57720E+000	10	...........
	38	0.52	8.15947E-001	5.99356E-003	0.00000E+000	4.89043E-003	3.59960E-001	-1.05090E+000	3.57720E+000	10	...........
	39	0.533333	8.21787E-001	5.99041E-003	0.00000E+000	4.92284E-003	3.59960E-001	-1.05311E+000	3.57720E+000	10	...........
	40	0.546667	8.27619E-001	5.99743E-003	0.00000E+000	4.96359E-003	3.59960E-001	-1.06245E+000	3.57720E+000	10	...........
	41	0.56	8.33386E-001	5.99325E-003	0.00000E+000	4.99469E-003	3.59960E-001	-1.05091E+000	3.57720E+000	10	...........
	42	0.573333	8.39162E-001	5.98979E-003	0.00000E+000	5.02640E-003	3.59960E-001	-1.05308E+000	3.57720E+000	10	...........
	43	0.586667	8.44958E-001	5.99070E-003	0.00000E+000	5.06189E-003	3.59960E-001	-1.06248E+000	3.57720E+000	10	...........
	44	0.6	8.50725E-001	5.99494E-003	0.00000E+000	5.10004E-003	3.59960E-001	-1.05090E+000	3.57720E+000	10	...........
	45	0.613333	8.56537E-001	5.99649E-003	0.00000E+000	5.13622E-003	3.59960E-001	-1.05306E+000	3.57720E+000	10	...........
	46	0.626667	8.62328E-001	5.99627E-003	0.00000E+000	5.17076E-003	3.59960E-001	-1.06254E+000	3.57720E+000	10	...........
	47	0.64	8.68138E-001	5.99169E-003	0.00000E+000	5.20162E-003	3.59960E-001	-1.05101E+000	3.57720E+000	10	...........
	48	0.653333	8.73956E-001	5.99008E-003	0.00000E+000	5.23506E-003	3.59960E-001	-1.05310E+000	3.57720E+000	10	...........
	49	0.666667	8.79704E-001	5.99506E-003	0.00000E+000	5.27388E-003	3.59960E-001	-1.06256E+000	3.57720E+000	10	...........
	50	0.68	8.85463E-001	5.99523E-003	0.00000E+000	5.30855E-003	3.59960E-001	-1.05066E+000	3.57720E+000	10	...........
	51	0.693333	8.91201E-001	5.99257E-003	0.00000E+000	5.34059E-003	3.59960E-001	-1.05239E+000	3.57720E+000	10	...........
	52	0.706667	8.96942E-001	5.99223E-003	0.00000E+000	5.37468E-003	3.59960E-001	-1.06232E+000	3.57720E+000	10	...........
	53	0.72	9.02667E-001	5.99379E-003	0.00000E+000	5.41040E-003	3.59960E-001	-1.05054E+000	3.57720E+000	10	...........
	54	0.733333	9.08354E-001	5.99336E-003	0.00000E+000	5.44410E-003	3.59960E-001	-1.05250E+000	3.57720E+000	10	...........
	55	0.746667	9.14015E-001	5.99362E-003	0.00000E+000	5.47826E-003	3.59960E-001	-1.06218E+000	3.57720E+000	10	...........
	56	0.76	9.19742E-001	5.99470E-003	0.00000E+000	5.51358E-003	3.59960E-001	-1.05039E+000	3.57720E+000	10	...........
	57	0.773333	9.25403E-001	5.99718E-003	0.00000E+000	5.54981E-003	3.59960E-001	-1.05267E+000	3.57720E+000	10	...........
	58	0.786667	9.31012E-001	5.99466E-003	0.00000E+000	5.58110E-003	3.59960E-001	-1.06224E+000	3.57720E+000	10	...........
	59	0.8	9.36614E-001	5.99212E-003	0.00000E+000	5.61231E-003	3.59960E-001	-1.05041E+000	3.57720E+000	10	...........
	60	0.813333	9.42173E-001	5.99470E-003	0.00000E+000	5.64804E-003	3.59960E-001	-1.05253E+000	3.57720E+000	10	...........
	61	0.826667	9.47757E-001	5.99243E-003	0.00000E+000	5.67936E-003	3.59960E-001	-1.06222E+000	3.57720E+000	10	...........
	62	0.84	9.53285E-001	5.99512E-003	0.00000E+000	5.71506E-003	3.59960E-001	-1.05051E+000	3.57720E+000	10	...........
	63	0.853333	9.58788E-001	5.99236E-003	0.00000E+000	5.74540E-003	3.59960E-001	-1.05250E+000	3.57720E+000	10	...........
	64	0.866667	9.64333E-001	5.99470E-003	0.00000E+000	5.78089E-003	3.59960E-001	-1.06224E+000	3.57720E+000	10	...........
	65	0.88	9.69802E-001	5.99448E-003	0.00000E+000	5.81346E-003	3.59960E-001	-1.05041E+000	3.57720E+000	10	...........
	66	0.893333	9.75256E-001	5.99475E-003	0.00000E+000	5.84642E-003	3.59960E-001	-1.05235E+000	3.57720E+000	10	...........
	67	0.906667	9.80614E-001	5.99553E-003	0.00000E+000	5.87931E-003	3.59960E-001	-1.06230E+000	3.57720E+000	10	...........
	68	0.92	9.85991E-001	5.99329E-003	0.00000E+000	5.90933E-003	3.59960E-001	-1.05076E+000	3.57720E+000	10	...........
	69	0.933333	9.91314E-001	5.99263E-003	0.00000E+000	5.94058E-003	3.59960E-001	-1.05247E+000	3.57720E+000	10	...........
	70	0.946667	9.96604E-001	5.99586E-003	0.00000E+000	5.97549E-003	3.59960E-001	-1.06225E+000	3.57720E+000	10	...........
	71	0.95	9.99879E-001	5.99187E-003	0.00000E+000	5.99115E-003	3.59960E-001	-1.04432E+000	3.57720E+000	10	...........
STARTTIMEOFFSET	QUANT	150.4283	Start Time Offset (s)