Folder: Tesis/Data/CV_CRGO300517_1/PWRCCD_CRGO300517_1/CHARGE_DISCHARGE (part 89)

File: CHARGE_#177.DTA
EXPLAIN
TAG	PWR800_CHARGE
TITLE	LABEL	PWR Cyclic Charge Discharge (Cell) - Charge Step	Test &Identifier
DATE	LABEL	22-6-2017	Date
TIME	LABEL	15:42:50	Time
NOTES	NOTES	3	&Notes...
	supercap test cell
	0.6mg
	6M KOH
PSTAT	PSTAT	IFC5000-01520	Potentiostat
CAPACITY	QUANT	1.00000E-003	Capacity (A-hr)
CELLTYPE	SELECTOR	1	&Cell Type
WORKINGCONNECTION	SELECTOR	0	&Working Lead
MAXCHARGETIME	VARIABLEANDUNITS	1.00000E+002	s	1.00000E+002	second(s)	Max &Charge Time
CHARGECURRENT	QUANT	6.00000E-003	&Charge Current (A)
VOLTAGEFINISH	TWOPARAM	F	1.00000E-003	3.60000E+003	&Voltage Finish	 I (A) < 	Max Time(s)
SAMPLETIME	QUANT	1.00000E-002	Sa&mple Period (s)
CHARGESTOPAT1	MULTIPARAM	4	1.00000E+000	Charge Stop At &1	Voltage > Limit	V
CHARGESTOPAT2	MULTIPARAM	0	0.00000E+000	Charge Stop At &2	None	N/A
AESBHCSELECTOR	TOGGLE	F	Save Both Half Cells
IRCOMP	TOGGLE	F	IR &Measure
EOC	QUANT	0	Open Circuit (V)
SEQUENCER	TOGGLE	TRUE	Run as Sequence
PSTATMODEL	IQUANT	53	Pstat Model
PSTATSECTION	LABEL	IFC5000-01520	Pstat Section
PSTATSERIALNO	LABEL	01520	Pstat Serial Number
CTRLMODE	IQUANT	0	Control Mode
ELECTROMETER	IQUANT	1	RE=0 or CS=1
IESTAB	IQUANT	0	I/E Stability
CASPEED	IQUANT	4	Control Amp Speed
CONVENTION	IQUANT	1	Current Convention
ICHRANGE	IQUANT	2	Ich Range
ICHRANGEMODE	TOGGLE	T	Ich Auto Range
ICHOFFSETENABLE	TOGGLE	F	Ich Offset Enable
ICHOFFSET	QUANT	0	Ich Offset (V)
ICHFILTER	IQUANT	1	Ich Filter
VCHRANGE	IQUANT	2	Vch Range
VCHRANGEMODE	TOGGLE	T	Vch Auto Range
VCHOFFSETENABLE	TOGGLE	F	Vch Offset Enable
VCHOFFSET	QUANT	0	Vch Offset (V)
VCHFILTER	IQUANT	1	Vch Filter
IERANGELOWERLIMIT	IQUANT	9	I/E Range Lower Limit
IERANGEMODE	TOGGLE	F	I/E AutoRange
IERANGE	IQUANT	10	I/E Range
ACHSELECT	IQUANT	1	Ach Select
ACHRANGE	IQUANT	2	Ach Range
ACHOFFSETENABLE	TOGGLE	F	Ach Offset Enable
ACHOFFSET	QUANT	0	Ach Offset (V)
ACHFILTER	IQUANT	1	Ach Filter
CABLEID	IQUANT	14	Cable ID
DCCALDATE	LABEL	20-10-2016	DC Calibration Date
ACCALDATE	LABEL	12/3/2015	AC Calibration Date
FRAMEWORKVERSION	QUANT	7.01	Framework Version
INSTRUMENTVERSION	LABEL	4.00	Instrument Version
CURVE	TABLE	66
	Pt	T	Vf	Im	Vu	Pwr	Sig	Ach	Temp	IERange	Over
	#	s	V	A	V	W	V	V	deg C	#	bits
	0	0.013333	6.02742E-001	5.99595E-003	0.00000E+000	3.61401E-003	3.59960E-001	-1.08315E+000	3.57710E+000	10	...........
	1	0.026667	6.11144E-001	5.99742E-003	0.00000E+000	3.66529E-003	3.59960E-001	-1.09384E+000	3.57710E+000	10	...........
	2	0.04	6.18947E-001	5.99265E-003	0.00000E+000	3.70913E-003	3.59960E-001	-1.08436E+000	3.57710E+000	10	...........
	3	0.053333	6.26208E-001	5.99090E-003	0.00000E+000	3.75155E-003	3.59960E-001	-1.08292E+000	3.57710E+000	10	...........
	4	0.066667	6.33252E-001	5.99161E-003	0.00000E+000	3.79420E-003	3.59960E-001	-1.09322E+000	3.57710E+000	10	...........
	5	0.08	6.40132E-001	5.99231E-003	0.00000E+000	3.83587E-003	3.59960E-001	-1.08427E+000	3.57710E+000	10	...........
	6	0.093333	6.46866E-001	5.99103E-003	0.00000E+000	3.87539E-003	3.59960E-001	-1.08282E+000	3.57710E+000	10	...........
	7	0.106667	6.53478E-001	5.99777E-003	0.00000E+000	3.91941E-003	3.59960E-001	-1.09337E+000	3.57710E+000	10	...........
	8	0.12	6.60000E-001	5.98982E-003	0.00000E+000	3.95328E-003	3.59960E-001	-1.08420E+000	3.57710E+000	10	...........
	9	0.133333	6.66447E-001	5.99070E-003	0.00000E+000	3.99249E-003	3.59960E-001	-1.08273E+000	3.57710E+000	10	...........
	10	0.146667	6.72861E-001	5.99736E-003	0.00000E+000	4.03539E-003	3.59960E-001	-1.09348E+000	3.57710E+000	10	...........
	11	0.16	6.79254E-001	5.99464E-003	0.00000E+000	4.07188E-003	3.59960E-001	-1.08435E+000	3.57710E+000	10	...........
	12	0.173333	6.85520E-001	5.99592E-003	0.00000E+000	4.11032E-003	3.59960E-001	-1.08251E+000	3.57710E+000	10	...........
	13	0.186667	6.91811E-001	5.99479E-003	0.00000E+000	4.14727E-003	3.59960E-001	-1.09314E+000	3.57710E+000	10	...........
	14	0.2	6.98029E-001	5.99400E-003	0.00000E+000	4.18398E-003	3.59960E-001	-1.08402E+000	3.57710E+000	10	...........
	15	0.213333	7.04220E-001	5.99341E-003	0.00000E+000	4.22067E-003	3.59960E-001	-1.08278E+000	3.57710E+000	10	...........
	16	0.226667	7.10407E-001	5.99335E-003	0.00000E+000	4.25772E-003	3.59960E-001	-1.09325E+000	3.57710E+000	10	...........
	17	0.24	7.16608E-001	5.99443E-003	0.00000E+000	4.29566E-003	3.59960E-001	-1.08391E+000	3.57710E+000	10	...........
	18	0.253333	7.22761E-001	5.99460E-003	0.00000E+000	4.33267E-003	3.59960E-001	-1.08221E+000	3.57710E+000	10	...........
	19	0.266667	7.28920E-001	5.99610E-003	0.00000E+000	4.37067E-003	3.59960E-001	-1.09316E+000	3.57710E+000	10	...........
	20	0.28	7.35040E-001	5.99232E-003	0.00000E+000	4.40459E-003	3.59960E-001	-1.08444E+000	3.57710E+000	10	...........
	21	0.293333	7.41168E-001	5.99347E-003	0.00000E+000	4.44217E-003	3.59960E-001	-1.08256E+000	3.57710E+000	10	...........
	22	0.306667	7.47314E-001	5.99323E-003	0.00000E+000	4.47883E-003	3.59960E-001	-1.09267E+000	3.57710E+000	10	...........
	23	0.32	7.53448E-001	5.99349E-003	0.00000E+000	4.51578E-003	3.59960E-001	-1.08339E+000	3.57710E+000	10	...........
	24	0.333333	7.59509E-001	5.99115E-003	0.00000E+000	4.55033E-003	3.59960E-001	-1.08210E+000	3.57710E+000	10	...........
	25	0.346667	7.65600E-001	5.99380E-003	0.00000E+000	4.58885E-003	3.59960E-001	-1.09284E+000	3.57710E+000	10	...........
	26	0.36	7.71660E-001	5.99573E-003	0.00000E+000	4.62666E-003	3.59960E-001	-1.08362E+000	3.57710E+000	10	...........
	27	0.373333	7.77753E-001	5.99501E-003	0.00000E+000	4.66264E-003	3.59960E-001	-1.08190E+000	3.57710E+000	10	...........
	28	0.386667	7.83822E-001	5.99521E-003	0.00000E+000	4.69917E-003	3.59960E-001	-1.09264E+000	3.57710E+000	10	...........
	29	0.4	7.89825E-001	5.99132E-003	0.00000E+000	4.73209E-003	3.59960E-001	-1.08364E+000	3.57710E+000	10	...........
	30	0.413333	7.95907E-001	5.98819E-003	0.00000E+000	4.76604E-003	3.59960E-001	-1.08215E+000	3.57710E+000	10	...........
	31	0.426667	8.01972E-001	5.99660E-003	0.00000E+000	4.80910E-003	3.59960E-001	-1.09265E+000	3.57710E+000	10	...........
	32	0.44	8.08044E-001	5.99590E-003	0.00000E+000	4.84495E-003	3.59960E-001	-1.08342E+000	3.57710E+000	10	...........
	33	0.453333	8.14075E-001	5.99776E-003	0.00000E+000	4.88262E-003	3.59960E-001	-1.08182E+000	3.57710E+000	10	...........
	34	0.466667	8.20090E-001	5.99470E-003	0.00000E+000	4.91619E-003	3.59960E-001	-1.09264E+000	3.57710E+000	10	...........
	35	0.48	8.26080E-001	5.99728E-003	0.00000E+000	4.95423E-003	3.59960E-001	-1.08379E+000	3.57710E+000	10	...........
	36	0.493333	8.32088E-001	5.99590E-003	0.00000E+000	4.98912E-003	3.59960E-001	-1.08212E+000	3.57710E+000	10	...........
	37	0.506667	8.38099E-001	5.99939E-003	0.00000E+000	5.02809E-003	3.59960E-001	-1.09234E+000	3.57710E+000	10	...........
	38	0.52	8.44133E-001	5.99791E-003	0.00000E+000	5.06303E-003	3.59960E-001	-1.08337E+000	3.57710E+000	10	...........
	39	0.533333	8.50122E-001	5.99322E-003	0.00000E+000	5.09497E-003	3.59960E-001	-1.08207E+000	3.57710E+000	10	...........
	40	0.546667	8.56073E-001	5.99713E-003	0.00000E+000	5.13398E-003	3.59960E-001	-1.09271E+000	3.57710E+000	10	...........
	41	0.56	8.62050E-001	5.99296E-003	0.00000E+000	5.16623E-003	3.59960E-001	-1.08378E+000	3.57710E+000	10	...........
	42	0.573333	8.67985E-001	5.99152E-003	0.00000E+000	5.20055E-003	3.59960E-001	-1.08215E+000	3.57710E+000	10	...........
	43	0.586667	8.73982E-001	5.99199E-003	0.00000E+000	5.23689E-003	3.59960E-001	-1.09270E+000	3.57710E+000	10	...........
	44	0.6	8.79862E-001	5.99320E-003	0.00000E+000	5.27319E-003	3.59960E-001	-1.08356E+000	3.57710E+000	10	...........
	45	0.613333	8.85749E-001	5.99414E-003	0.00000E+000	5.30930E-003	3.59960E-001	-1.08205E+000	3.57710E+000	10	...........
	46	0.626667	8.91633E-001	5.99286E-003	0.00000E+000	5.34343E-003	3.59960E-001	-1.09235E+000	3.57710E+000	10	...........
	47	0.64	8.97561E-001	5.99532E-003	0.00000E+000	5.38117E-003	3.59960E-001	-1.08312E+000	3.57710E+000	10	...........
	48	0.653333	9.03386E-001	5.99045E-003	0.00000E+000	5.41169E-003	3.59960E-001	-1.08129E+000	3.57710E+000	10	...........
	49	0.666667	9.09232E-001	5.99689E-003	0.00000E+000	5.45256E-003	3.59960E-001	-1.09213E+000	3.57710E+000	10	...........
	50	0.68	9.15021E-001	5.99328E-003	0.00000E+000	5.48398E-003	3.59960E-001	-1.08314E+000	3.57710E+000	10	...........
	51	0.693333	9.20887E-001	5.99422E-003	0.00000E+000	5.52000E-003	3.59960E-001	-1.08163E+000	3.57710E+000	10	...........
	52	0.706667	9.26698E-001	5.99061E-003	0.00000E+000	5.55149E-003	3.59960E-001	-1.09221E+000	3.57710E+000	10	...........
	53	0.72	9.32425E-001	5.99506E-003	0.00000E+000	5.58995E-003	3.59960E-001	-1.08288E+000	3.57710E+000	10	...........
	54	0.733333	9.38130E-001	5.99541E-003	0.00000E+000	5.62447E-003	3.59960E-001	-1.08145E+000	3.57710E+000	10	...........
	55	0.746667	9.43819E-001	5.99304E-003	0.00000E+000	5.65635E-003	3.59960E-001	-1.09229E+000	3.57765E+000	10	...........
	56	0.76	9.49542E-001	5.99711E-003	0.00000E+000	5.69450E-003	3.59960E-001	-1.08324E+000	3.57820E+000	10	...........
	57	0.773333	9.55185E-001	5.99207E-003	0.00000E+000	5.72354E-003	3.59960E-001	-1.08146E+000	3.57820E+000	10	...........
	58	0.786667	9.60754E-001	5.99362E-003	0.00000E+000	5.75840E-003	3.59960E-001	-1.09187E+000	3.57820E+000	10	...........
	59	0.8	9.66368E-001	5.98982E-003	0.00000E+000	5.78837E-003	3.59960E-001	-1.08272E+000	3.57820E+000	10	...........
	60	0.813333	9.71930E-001	5.99217E-003	0.00000E+000	5.82397E-003	3.59960E-001	-1.08149E+000	3.57820E+000	10	...........
	61	0.826667	9.77489E-001	5.99247E-003	0.00000E+000	5.85757E-003	3.59960E-001	-1.09232E+000	3.57820E+000	10	...........
	62	0.84	9.82921E-001	5.99208E-003	0.00000E+000	5.88974E-003	3.59960E-001	-1.08324E+000	3.57820E+000	10	...........
	63	0.853333	9.88341E-001	5.99377E-003	0.00000E+000	5.92389E-003	3.59960E-001	-1.08137E+000	3.57820E+000	10	...........
	64	0.866667	9.93745E-001	5.99379E-003	0.00000E+000	5.95630E-003	3.59960E-001	-1.09185E+000	3.57820E+000	10	...........
	65	0.876667	9.98430E-001	5.99115E-003	0.00000E+000	5.98174E-003	3.59960E-001	-1.07891E+000	3.57820E+000	10	...........
STARTTIMEOFFSET	QUANT	333.1035	Start Time Offset (s)

File: CHARGE_#178.DTA
EXPLAIN
TAG	PWR800_CHARGE
TITLE	LABEL	PWR Cyclic Charge Discharge (Cell) - Charge Step	Test &Identifier
DATE	LABEL	22-6-2017	Date
TIME	LABEL	15:42:53	Time
NOTES	NOTES	3	&Notes...
	supercap test cell
	0.6mg
	6M KOH
PSTAT	PSTAT	IFC5000-01520	Potentiostat
CAPACITY	QUANT	1.00000E-003	Capacity (A-hr)
CELLTYPE	SELECTOR	1	&Cell Type
WORKINGCONNECTION	SELECTOR	0	&Working Lead
MAXCHARGETIME	VARIABLEANDUNITS	1.00000E+002	s	1.00000E+002	second(s)	Max &Charge Time
CHARGECURRENT	QUANT	6.00000E-003	&Charge Current (A)
VOLTAGEFINISH	TWOPARAM	F	1.00000E-003	3.60000E+003	&Voltage Finish	 I (A) < 	Max Time(s)
SAMPLETIME	QUANT	1.00000E-002	Sa&mple Period (s)
CHARGESTOPAT1	MULTIPARAM	4	1.00000E+000	Charge Stop At &1	Voltage > Limit	V
CHARGESTOPAT2	MULTIPARAM	0	0.00000E+000	Charge Stop At &2	None	N/A
AESBHCSELECTOR	TOGGLE	F	Save Both Half Cells
IRCOMP	TOGGLE	F	IR &Measure
EOC	QUANT	0	Open Circuit (V)
SEQUENCER	TOGGLE	TRUE	Run as Sequence
PSTATMODEL	IQUANT	53	Pstat Model
PSTATSECTION	LABEL	IFC5000-01520	Pstat Section
PSTATSERIALNO	LABEL	01520	Pstat Serial Number
CTRLMODE	IQUANT	0	Control Mode
ELECTROMETER	IQUANT	1	RE=0 or CS=1
IESTAB	IQUANT	0	I/E Stability
CASPEED	IQUANT	4	Control Amp Speed
CONVENTION	IQUANT	1	Current Convention
ICHRANGE	IQUANT	2	Ich Range
ICHRANGEMODE	TOGGLE	T	Ich Auto Range
ICHOFFSETENABLE	TOGGLE	F	Ich Offset Enable
ICHOFFSET	QUANT	0	Ich Offset (V)
ICHFILTER	IQUANT	1	Ich Filter
VCHRANGE	IQUANT	2	Vch Range
VCHRANGEMODE	TOGGLE	T	Vch Auto Range
VCHOFFSETENABLE	TOGGLE	F	Vch Offset Enable
VCHOFFSET	QUANT	0	Vch Offset (V)
VCHFILTER	IQUANT	1	Vch Filter
IERANGELOWERLIMIT	IQUANT	9	I/E Range Lower Limit
IERANGEMODE	TOGGLE	F	I/E AutoRange
IERANGE	IQUANT	10	I/E Range
ACHSELECT	IQUANT	1	Ach Select
ACHRANGE	IQUANT	2	Ach Range
ACHOFFSETENABLE	TOGGLE	F	Ach Offset Enable
ACHOFFSET	QUANT	0	Ach Offset (V)
ACHFILTER	IQUANT	1	Ach Filter
CABLEID	IQUANT	14	Cable ID
DCCALDATE	LABEL	20-10-2016	DC Calibration Date
ACCALDATE	LABEL	12/3/2015	AC Calibration Date
FRAMEWORKVERSION	QUANT	7.01	Framework Version
INSTRUMENTVERSION	LABEL	4.00	Instrument Version
CURVE	TABLE	66
	Pt	T	Vf	Im	Vu	Pwr	Sig	Ach	Temp	IERange	Over
	#	s	V	A	V	W	V	V	deg C	#	bits
	0	0.013333	6.02817E-001	5.99185E-003	0.00000E+000	3.61199E-003	3.59960E-001	-1.08377E+000	3.57760E+000	10	...........
	1	0.026667	6.11228E-001	5.99665E-003	0.00000E+000	3.66532E-003	3.59960E-001	-1.09374E+000	3.57760E+000	10	...........
	2	0.04	6.18992E-001	5.99380E-003	0.00000E+000	3.71011E-003	3.59960E-001	-1.08344E+000	3.57760E+000	10	...........
	3	0.053333	6.26325E-001	5.99076E-003	0.00000E+000	3.75216E-003	3.59960E-001	-1.08346E+000	3.57760E+000	10	...........
	4	0.066667	6.33367E-001	5.99383E-003	0.00000E+000	3.79630E-003	3.59960E-001	-1.09346E+000	3.57760E+000	10	...........
	5	0.08	6.40253E-001	5.99399E-003	0.00000E+000	3.83767E-003	3.59960E-001	-1.08341E+000	3.57760E+000	10	...........
	6	0.093333	6.46987E-001	5.99481E-003	0.00000E+000	3.87857E-003	3.59960E-001	-1.08364E+000	3.57760E+000	10	...........
	7	0.106667	6.53607E-001	5.99527E-003	0.00000E+000	3.91855E-003	3.59960E-001	-1.09328E+000	3.57760E+000	10	...........
	8	0.12	6.60156E-001	5.99310E-003	0.00000E+000	3.95638E-003	3.59960E-001	-1.08306E+000	3.57760E+000	10	...........
	9	0.133333	6.66609E-001	5.99262E-003	0.00000E+000	3.99474E-003	3.59960E-001	-1.08326E+000	3.57760E+000	10	...........
	10	0.146667	6.73016E-001	5.99183E-003	0.00000E+000	4.03260E-003	3.59960E-001	-1.09336E+000	3.57760E+000	10	...........
	11	0.16	6.79310E-001	5.99551E-003	0.00000E+000	4.07281E-003	3.59960E-001	-1.08312E+000	3.57760E+000	10	...........
	12	0.173333	6.85603E-001	5.99023E-003	0.00000E+000	4.10692E-003	3.59960E-001	-1.08320E+000	3.57760E+000	10	...........
	13	0.186667	6.91926E-001	5.98964E-003	0.00000E+000	4.14439E-003	3.59960E-001	-1.09293E+000	3.57760E+000	10	...........
	14	0.2	6.98189E-001	5.99510E-003	0.00000E+000	4.18571E-003	3.59960E-001	-1.08278E+000	3.57760E+000	10	...........
	15	0.213333	7.04375E-001	5.99425E-003	0.00000E+000	4.22220E-003	3.59960E-001	-1.08323E+000	3.57778E+000	10	...........
	16	0.226667	7.10574E-001	5.99157E-003	0.00000E+000	4.25746E-003	3.59960E-001	-1.09316E+000	3.57780E+000	10	...........
	17	0.24	7.16768E-001	5.99348E-003	0.00000E+000	4.29593E-003	3.59960E-001	-1.08294E+000	3.57780E+000	10	...........
	18	0.253333	7.22949E-001	5.99710E-003	0.00000E+000	4.33560E-003	3.59960E-001	-1.08293E+000	3.57780E+000	10	...........
	19	0.266667	7.29090E-001	5.99609E-003	0.00000E+000	4.37169E-003	3.59960E-001	-1.09297E+000	3.57780E+000	10	...........
	20	0.28	7.35164E-001	5.99288E-003	0.00000E+000	4.40575E-003	3.59960E-001	-1.08328E+000	3.57780E+000	10	...........
	21	0.293333	7.41317E-001	5.99550E-003	0.00000E+000	4.44457E-003	3.59960E-001	-1.08320E+000	3.57780E+000	10	...........
	22	0.306667	7.47443E-001	5.99375E-003	0.00000E+000	4.47999E-003	3.59960E-001	-1.09278E+000	3.57780E+000	10	...........
	23	0.32	7.53559E-001	5.99310E-003	0.00000E+000	4.51616E-003	3.59960E-001	-1.08265E+000	3.57780E+000	10	...........
	24	0.333333	7.59635E-001	5.99573E-003	0.00000E+000	4.55457E-003	3.59960E-001	-1.08253E+000	3.57780E+000	10	...........
	25	0.346667	7.65742E-001	5.99191E-003	0.00000E+000	4.58826E-003	3.59960E-001	-1.09261E+000	3.57780E+000	10	...........
	26	0.36	7.71847E-001	5.99286E-003	0.00000E+000	4.62557E-003	3.59960E-001	-1.08264E+000	3.57780E+000	10	...........
	27	0.373333	7.77912E-001	5.99624E-003	0.00000E+000	4.66455E-003	3.59960E-001	-1.08257E+000	3.57780E+000	10	...........
	28	0.386667	7.83963E-001	5.99661E-003	0.00000E+000	4.70112E-003	3.59960E-001	-1.09216E+000	3.57780E+000	10	...........
	29	0.4	7.90041E-001	5.99270E-003	0.00000E+000	4.73448E-003	3.59960E-001	-1.08243E+000	3.57780E+000	10	...........
	30	0.413333	7.96121E-001	5.99048E-003	0.00000E+000	4.76915E-003	3.59960E-001	-1.08269E+000	3.57780E+000	10	...........
	31	0.426667	8.02158E-001	5.99475E-003	0.00000E+000	4.80874E-003	3.59960E-001	-1.09240E+000	3.57780E+000	10	...........
	32	0.44	8.08199E-001	5.99437E-003	0.00000E+000	4.84464E-003	3.59960E-001	-1.08228E+000	3.57780E+000	10	...........
	33	0.453333	8.14208E-001	5.99717E-003	0.00000E+000	4.88294E-003	3.59960E-001	-1.08226E+000	3.57780E+000	10	...........
	34	0.466667	8.20249E-001	5.99255E-003	0.00000E+000	4.91538E-003	3.59960E-001	-1.09232E+000	3.57780E+000	10	...........
	35	0.48	8.26291E-001	5.99277E-003	0.00000E+000	4.95177E-003	3.59960E-001	-1.08228E+000	3.57780E+000	10	...........
	36	0.493333	8.32281E-001	5.99476E-003	0.00000E+000	4.98932E-003	3.59960E-001	-1.08243E+000	3.57780E+000	10	...........
	37	0.506667	8.38277E-001	5.99046E-003	0.00000E+000	5.02167E-003	3.59960E-001	-1.09203E+000	3.57780E+000	10	...........
	38	0.52	8.44301E-001	5.99061E-003	0.00000E+000	5.05788E-003	3.59960E-001	-1.08212E+000	3.57780E+000	10	...........
	39	0.533333	8.50261E-001	5.99592E-003	0.00000E+000	5.09810E-003	3.59960E-001	-1.08233E+000	3.57780E+000	10	...........
	40	0.546667	8.56236E-001	5.99279E-003	0.00000E+000	5.13124E-003	3.59960E-001	-1.09245E+000	3.57780E+000	10	...........
	41	0.56	8.62204E-001	5.99460E-003	0.00000E+000	5.16857E-003	3.59960E-001	-1.08231E+000	3.57780E+000	10	...........
	42	0.573333	8.68178E-001	5.99472E-003	0.00000E+000	5.20448E-003	3.59960E-001	-1.08223E+000	3.57780E+000	10	...........
	43	0.586667	8.74126E-001	5.99456E-003	0.00000E+000	5.24000E-003	3.59960E-001	-1.09211E+000	3.57780E+000	10	...........
	44	0.6	8.80047E-001	5.99501E-003	0.00000E+000	5.27589E-003	3.59960E-001	-1.08217E+000	3.57780E+000	10	...........
	45	0.613333	8.85961E-001	5.99412E-003	0.00000E+000	5.31055E-003	3.59960E-001	-1.08231E+000	3.57780E+000	10	...........
	46	0.626667	8.91844E-001	5.99083E-003	0.00000E+000	5.34288E-003	3.59960E-001	-1.09212E+000	3.57780E+000	10	...........
	47	0.64	8.97729E-001	5.99660E-003	0.00000E+000	5.38332E-003	3.59960E-001	-1.08204E+000	3.57780E+000	10	...........
	48	0.653333	9.03573E-001	5.99408E-003	0.00000E+000	5.41609E-003	3.59960E-001	-1.08181E+000	3.57780E+000	10	...........
	49	0.666667	9.09417E-001	5.99225E-003	0.00000E+000	5.44945E-003	3.59960E-001	-1.09166E+000	3.57780E+000	10	...........
	50	0.68	9.15226E-001	5.99534E-003	0.00000E+000	5.48709E-003	3.59960E-001	-1.08186E+000	3.57780E+000	10	...........
	51	0.693333	9.21097E-001	5.99485E-003	0.00000E+000	5.52184E-003	3.59960E-001	-1.08181E+000	3.57780E+000	10	...........
	52	0.706667	9.26897E-001	5.99310E-003	0.00000E+000	5.55499E-003	3.59960E-001	-1.09175E+000	3.57780E+000	10	...........
	53	0.72	9.32607E-001	5.99249E-003	0.00000E+000	5.58863E-003	3.59960E-001	-1.08166E+000	3.57780E+000	10	...........
	54	0.733333	9.38334E-001	5.99171E-003	0.00000E+000	5.62222E-003	3.59960E-001	-1.08166E+000	3.57780E+000	10	...........
	55	0.746667	9.44037E-001	5.99249E-003	0.00000E+000	5.65713E-003	3.59960E-001	-1.09180E+000	3.57780E+000	10	...........
	56	0.76	9.49702E-001	5.99493E-003	0.00000E+000	5.69339E-003	3.59960E-001	-1.08172E+000	3.57780E+000	10	...........
	57	0.773333	9.55325E-001	5.99769E-003	0.00000E+000	5.72975E-003	3.59960E-001	-1.08167E+000	3.57780E+000	10	...........
	58	0.786667	9.60946E-001	5.99404E-003	0.00000E+000	5.75995E-003	3.59960E-001	-1.09150E+000	3.57780E+000	10	...........
	59	0.8	9.66490E-001	5.98682E-003	0.00000E+000	5.78621E-003	3.59960E-001	-1.08179E+000	3.57780E+000	10	...........
	60	0.813333	9.72076E-001	5.99119E-003	0.00000E+000	5.82390E-003	3.59960E-001	-1.08187E+000	3.57780E+000	10	...........
	61	0.826667	9.77607E-001	5.98926E-003	0.00000E+000	5.85515E-003	3.59960E-001	-1.09170E+000	3.57780E+000	10	...........
	62	0.84	9.83063E-001	5.99459E-003	0.00000E+000	5.89306E-003	3.59960E-001	-1.08169E+000	3.57780E+000	10	...........
	63	0.853333	9.88483E-001	5.99233E-003	0.00000E+000	5.92332E-003	3.59960E-001	-1.08175E+000	3.57780E+000	10	...........
	64	0.866667	9.93885E-001	5.99217E-003	0.00000E+000	5.95553E-003	3.59960E-001	-1.09166E+000	3.57780E+000	10	...........
	65	0.876667	9.98598E-001	5.99186E-003	0.00000E+000	5.98346E-003	3.59960E-001	-1.07738E+000	3.57780E+000	10	...........
STARTTIMEOFFSET	QUANT	334.8468	Start Time Offset (s)