Folder: Tesis/Data/CV_Steel_Disk_No_Material_2 (part 2)

File: CV_#3.DTA
EXPLAIN
TAG	CV
TITLE	LABEL	Cyclic Voltammetry	Test Identifier
DATE	LABEL	12-7-2017	Date
TIME	LABEL	17:20:45	Time
NOTES	NOTES	1	Notes...

PSTAT	PSTAT	IFC5000-01520	Potentiostat
VINIT	POTEN	0.00000E+000	F	Initial E (V)
VLIMIT1	POTEN	-8.00000E-001	F	Scan Limit 1 (V)
VLIMIT2	POTEN	8.00000E-001	F	Scan Limit 2 (V)
VFINAL	POTEN	0.00000E+000	F	Final E (V)
SCANRATE	QUANT	9.99998E+001	A Real Number
STEPSIZE	QUANT	1.00000E+001	Step Size (mV)
CYCLES	IQUANT	3	Cycles (#)
IMODE	SELECTOR	0	I/E Range Mode
IRANGE	QUANT	2.50000E+002	Max Current (mA)
AREA	QUANT	3.84800E-001	A Real Number
EQDELAY	QUANT	1.00000E+000	Equil. Time (s)
IRCOMP	SELECTOR	0	IRComp
PFCOR	QUANT	2.50000E+002	PF Corr. (ohm)
SAMPLINGMODE	SELECTOR	0	Sampling Mode
EOC	QUANT	0	Open Circuit (V)
SEQUENCER	TOGGLE	TRUE	Run as Sequence
PSTATMODEL	IQUANT	53	Pstat Model
PSTATSECTION	LABEL	IFC5000-01520	Pstat Section
PSTATSERIALNO	LABEL	01520	Pstat Serial Number
CTRLMODE	IQUANT	1	Control Mode
ELECTROMETER	IQUANT	0	RE=0 or CS=1
IESTAB	IQUANT	2	I/E Stability
CASPEED	IQUANT	4	Control Amp Speed
CONVENTION	IQUANT	1	Current Convention
ICHRANGE	IQUANT	2	Ich Range
ICHRANGEMODE	TOGGLE	F	Ich Auto Range
ICHOFFSETENABLE	TOGGLE	F	Ich Offset Enable
ICHOFFSET	QUANT	0	Ich Offset (V)
ICHFILTER	IQUANT	4	Ich Filter
VCHRANGE	IQUANT	2	Vch Range
VCHRANGEMODE	TOGGLE	F	Vch Auto Range
VCHOFFSETENABLE	TOGGLE	F	Vch Offset Enable
VCHOFFSET	QUANT	0	Vch Offset (V)
VCHFILTER	IQUANT	4	Vch Filter
IERANGELOWERLIMIT	IQUANT	7	I/E Range Lower Limit
IERANGEMODE	TOGGLE	T	I/E AutoRange
IERANGE	IQUANT	11	I/E Range
ACHSELECT	IQUANT	1	Ach Select
ACHRANGE	IQUANT	2	Ach Range
ACHOFFSETENABLE	TOGGLE	F	Ach Offset Enable
ACHOFFSET	QUANT	0	Ach Offset (V)
ACHFILTER	IQUANT	1	Ach Filter
CABLEID	IQUANT	14	Cable ID
DCCALDATE	LABEL	5-7-2017	DC Calibration Date
ACCALDATE	LABEL	12/3/2015	AC Calibration Date
FRAMEWORKVERSION	QUANT	7.01	Framework Version
INSTRUMENTVERSION	LABEL	4.00	Instrument Version
CURVE1	TABLE
	Pt	T	Vf	Im	Vu	Sig	Ach	IERange	Over
	#	s	V vs. Ref.	A	V	V	V	#	bits
	0	0.1	-2.06485E-004	-2.80533E-005	0.00000E+000	0.00000E+000	-5.33797E-004	11	...........
	3	0.4	-3.00072E-002	-7.07338E-006	0.00000E+000	-2.99962E-002	-3.03448E-002	8	...........
	6	0.7	-6.00078E-002	-8.18686E-006	0.00000E+000	-5.99924E-002	-6.03559E-002	7	...........
	9	1	-9.00085E-002	-9.25580E-006	0.00000E+000	-8.99886E-002	-9.03670E-002	7	...........
	12	1.3	-1.20009E-001	-1.01794E-005	0.00000E+000	-1.19985E-001	-1.20378E-001	7	...........
	15	1.6	-1.50010E-001	-1.10129E-005	0.00000E+000	-1.49981E-001	-1.50389E-001	7	...........
	18	1.9	-1.80011E-001	-1.18012E-005	0.00000E+000	-1.79977E-001	-1.80400E-001	7	...........
	21	2.2	-2.10011E-001	-1.25895E-005	0.00000E+000	-2.10023E-001	-2.10411E-001	7	...........
	24	2.5	-2.40012E-001	-1.33846E-005	0.00000E+000	-2.40020E-001	-2.40222E-001	7	...........
	27	2.8	-2.70013E-001	-1.42564E-005	0.00000E+000	-2.70016E-001	-2.70233E-001	7	...........
	30	3.1	-2.99813E-001	-1.52034E-005	0.00000E+000	-3.00012E-001	-3.00245E-001	7	...........
	33	3.4	-3.29814E-001	-1.62506E-005	0.00000E+000	-3.30008E-001	-3.30256E-001	7	...........
	36	3.7	-3.59815E-001	-1.74114E-005	0.00000E+000	-3.60005E-001	-3.60067E-001	7	...........
	39	4	-3.89815E-001	-1.87042E-005	0.00000E+000	-3.90001E-001	-3.90278E-001	7	...........
	42	4.3	-4.19816E-001	-2.01322E-005	0.00000E+000	-4.19997E-001	-4.20089E-001	7	...........
	45	4.6	-4.50017E-001	-2.17206E-005	0.00000E+000	-4.49993E-001	-4.50100E-001	7	...........
	48	4.9	-4.79617E-001	-2.34676E-005	0.00000E+000	-4.79989E-001	-4.80111E-001	7	...........
	51	5.2	-5.09618E-001	-2.53834E-005	0.00000E+000	-5.09986E-001	-5.09922E-001	7	...........
	54	5.5	-5.39619E-001	-2.74678E-005	0.00000E+000	-5.39982E-001	-5.40133E-001	7	...........
	57	5.8	-5.69819E-001	-2.97443E-005	0.00000E+000	-5.69978E-001	-5.69944E-001	7	...........
	60	6.1	-5.99620E-001	-3.22580E-005	0.00000E+000	-5.99974E-001	-5.99955E-001	7	...........
	63	6.4	-6.29821E-001	-3.50456E-005	0.00000E+000	-6.30020E-001	-6.29966E-001	7	...........
	66	6.7	-6.59622E-001	-3.81304E-005	0.00000E+000	-6.60017E-001	-6.59978E-001	7	...........
	69	7	-6.89622E-001	-4.15861E-005	0.00000E+000	-6.90013E-001	-6.89989E-001	7	...........
	72	7.3	-7.19623E-001	-4.54794E-005	0.00000E+000	-7.20009E-001	-7.19800E-001	7	...........
	75	7.6	-7.49624E-001	-5.14152E-005	0.00000E+000	-7.50005E-001	-7.50011E-001	8	...........
	78	7.9	-7.79624E-001	-5.59562E-005	0.00000E+000	-7.80001E-001	-7.80022E-001	8	...........
	81	8.2	-7.90424E-001	-3.80926E-005	0.00000E+000	-7.90000E-001	-7.89825E-001	8	...........
	84	8.5	-7.60024E-001	-1.92754E-005	0.00000E+000	-7.60004E-001	-7.59614E-001	7	...........
	87	8.8	-7.30023E-001	-9.96062E-006	0.00000E+000	-7.30008E-001	-7.29803E-001	7	...........
	90	9.1	-7.00222E-001	-4.25016E-006	0.00000E+000	-7.00012E-001	-6.99992E-001	7	...........
	93	9.4	-6.70222E-001	-4.62121E-007	0.00000E+000	-6.70015E-001	-6.70181E-001	7	...........
	96	9.7	-6.40021E-001	2.18350E-006	0.00000E+000	-6.40019E-001	-6.40170E-001	7	...........
	99	10	-6.10220E-001	4.08253E-006	0.00000E+000	-6.10023E-001	-6.09959E-001	7	...........
	102	10.3	-5.80020E-001	5.50054E-006	0.00000E+000	-5.79977E-001	-5.79948E-001	7	...........
	105	10.6	-5.50219E-001	6.54109E-006	0.00000E+000	-5.49981E-001	-5.49937E-001	7	...........
	108	10.9	-5.20218E-001	7.33277E-006	0.00000E+000	-5.19984E-001	-5.19926E-001	7	...........
	111	11.2	-4.90218E-001	7.93738E-006	0.00000E+000	-4.89988E-001	-4.90115E-001	7	...........
	114	11.5	-4.60217E-001	8.40337E-006	0.00000E+000	-4.59992E-001	-4.59904E-001	7	...........
	117	11.8	-4.30216E-001	8.77249E-006	0.00000E+000	-4.29996E-001	-4.30093E-001	7	...........
	120	12.1	-4.00216E-001	9.05309E-006	0.00000E+000	-3.99999E-001	-4.00081E-001	7	...........
	123	12.4	-3.70415E-001	9.26687E-006	0.00000E+000	-3.70003E-001	-3.70070E-001	7	...........
	126	12.7	-3.40414E-001	9.41552E-006	0.00000E+000	-3.40007E-001	-3.40259E-001	7	...........
	129	13	-3.10214E-001	9.51741E-006	0.00000E+000	-3.10011E-001	-3.10248E-001	7	...........
	132	13.3	-2.80413E-001	9.58422E-006	0.00000E+000	-2.80015E-001	-2.80237E-001	7	...........
	135	13.6	-2.50412E-001	9.63432E-006	0.00000E+000	-2.50018E-001	-2.50226E-001	7	...........
	138	13.9	-2.20411E-001	9.67608E-006	0.00000E+000	-2.20022E-001	-2.20215E-001	7	...........
	141	14.2	-1.90411E-001	9.72451E-006	0.00000E+000	-1.89976E-001	-1.90204E-001	7	...........
	144	14.5	-1.60610E-001	9.78297E-006	0.00000E+000	-1.59980E-001	-1.60393E-001	7	...........
	147	14.8	-1.30409E-001	9.86481E-006	0.00000E+000	-1.29984E-001	-1.30582E-001	7	...........
	150	15.1	-1.00409E-001	9.97671E-006	0.00000E+000	-9.99874E-002	-1.00171E-001	7	...........
	153	15.4	-7.02081E-002	1.01304E-005	0.00000E+000	-6.99912E-002	-7.03596E-002	7	...........
	156	15.7	-4.06074E-002	1.03124E-005	0.00000E+000	-3.99949E-002	-4.05486E-002	7	...........
	159	16	-1.04067E-002	1.05279E-005	0.00000E+000	-9.99874E-003	-1.05375E-002	7	...........
	162	16.3	1.93940E-002	1.07717E-005	0.00000E+000	1.99975E-002	1.94736E-002	7	...........
	165	16.6	4.95946E-002	1.10507E-005	0.00000E+000	4.99937E-002	4.94847E-002	7	...........
	168	16.9	7.93953E-002	1.13580E-005	0.00000E+000	7.99899E-002	7.92957E-002	7	...........
	171	17.2	1.09396E-001	1.16970E-005	0.00000E+000	1.09986E-001	1.09507E-001	7	...........
[...]
	921	92.2	3.89602E-001	-6.99767E-006	0.00000E+000	3.90001E-001	3.89210E-001	7	...........
	922	92.3	3.79802E-001	-7.09955E-006	0.00000E+000	3.80002E-001	3.79207E-001	7	...........
	923	92.4	3.69602E-001	-7.20310E-006	0.00000E+000	3.70003E-001	3.69403E-001	7	...........
	924	92.5	3.59802E-001	-7.30499E-006	0.00000E+000	3.60005E-001	3.59199E-001	7	...........
	925	92.6	3.49601E-001	-7.39685E-006	0.00000E+000	3.50006E-001	3.49396E-001	7	...........
	926	92.7	3.39601E-001	-7.48537E-006	0.00000E+000	3.40007E-001	3.39192E-001	7	...........
	927	92.8	3.29601E-001	-7.57556E-006	0.00000E+000	3.30008E-001	3.29388E-001	7	...........
	928	92.9	3.19801E-001	-7.66074E-006	0.00000E+000	3.20010E-001	3.19184E-001	7	...........
	929	93	3.10001E-001	-7.74592E-006	0.00000E+000	3.10011E-001	3.09381E-001	7	...........
	930	93.1	2.99600E-001	-7.82442E-006	0.00000E+000	3.00012E-001	2.99377E-001	7	...........
	931	93.2	2.89800E-001	-7.90793E-006	0.00000E+000	2.90013E-001	2.89373E-001	7	...........
	932	93.3	2.79800E-001	-7.98977E-006	0.00000E+000	2.80015E-001	2.79370E-001	7	...........
	933	93.4	2.69600E-001	-8.06493E-006	0.00000E+000	2.70016E-001	2.69366E-001	7	...........
	934	93.5	2.59799E-001	-8.15011E-006	0.00000E+000	2.60017E-001	2.59362E-001	7	...........
	935	93.6	2.49799E-001	-8.22527E-006	0.00000E+000	2.50018E-001	2.49359E-001	7	...........
	936	93.7	2.39799E-001	-8.30377E-006	0.00000E+000	2.40020E-001	2.39355E-001	7	...........
	937	93.8	2.29799E-001	-8.38895E-006	0.00000E+000	2.30021E-001	2.29151E-001	7	...........
	938	93.9	2.19799E-001	-8.46745E-006	0.00000E+000	2.20022E-001	2.19347E-001	7	...........
	939	94	2.09998E-001	-8.55096E-006	0.00000E+000	2.10023E-001	2.09544E-001	7	...........
	940	94.1	1.99798E-001	-8.62946E-006	0.00000E+000	2.00025E-001	1.99540E-001	7	...........
	941	94.2	1.89798E-001	-8.71298E-006	0.00000E+000	1.90026E-001	1.89536E-001	7	...........
	942	94.3	1.79598E-001	-8.81653E-006	0.00000E+000	1.79977E-001	1.79533E-001	7	...........
	943	94.4	1.69797E-001	-8.88167E-006	0.00000E+000	1.69979E-001	1.69329E-001	7	...........
	944	94.5	1.59997E-001	-8.96852E-006	0.00000E+000	1.59980E-001	1.59325E-001	7	...........
	945	94.6	1.49797E-001	-9.05537E-006	0.00000E+000	1.49981E-001	1.49322E-001	7	...........
	946	94.7	1.39797E-001	-9.13721E-006	0.00000E+000	1.39982E-001	1.39518E-001	7	...........
	947	94.8	1.29796E-001	-9.22740E-006	0.00000E+000	1.29984E-001	1.29714E-001	7	...........
	948	94.9	1.19796E-001	-9.31258E-006	0.00000E+000	1.19985E-001	1.19511E-001	7	...........
	949	95	1.09796E-001	-9.40277E-006	0.00000E+000	1.09986E-001	1.09307E-001	7	...........
	950	95.1	9.99958E-002	-9.49631E-006	0.00000E+000	9.99874E-002	9.95032E-002	7	...........
	951	95.2	8.97956E-002	-9.58149E-006	0.00000E+000	8.99886E-002	8.94995E-002	7	...........
	952	95.3	7.97953E-002	-9.67335E-006	0.00000E+000	7.99899E-002	7.94958E-002	7	...........
	953	95.4	6.97951E-002	-9.76521E-006	0.00000E+000	6.99912E-002	6.96922E-002	7	...........
	954	95.5	5.99949E-002	-9.85540E-006	0.00000E+000	5.99924E-002	5.92883E-002	7	...........
	955	95.6	4.99947E-002	-9.94726E-006	0.00000E+000	4.99937E-002	4.92846E-002	7	...........
	956	95.7	3.99944E-002	-1.00358E-005	0.00000E+000	3.99949E-002	3.94810E-002	7	...........
	957	95.8	2.99942E-002	-1.01276E-005	0.00000E+000	2.99962E-002	2.94773E-002	7	...........
	958	95.9	1.99940E-002	-1.02145E-005	0.00000E+000	1.99975E-002	1.94736E-002	7	...........
	959	96	9.99375E-003	-1.02997E-005	0.00000E+000	9.99874E-003	9.46990E-003	7	...........
	960	96.1	-2.06485E-004	-1.03899E-005	0.00000E+000	0.00000E+000	-5.33797E-004	7	...........

File: CV_#4.DTA
EXPLAIN
TAG	CV
TITLE	LABEL	Cyclic Voltammetry	Test Identifier
DATE	LABEL	12-7-2017	Date
TIME	LABEL	17:22:23	Time
NOTES	NOTES	1	Notes...

PSTAT	PSTAT	IFC5000-01520	Potentiostat
VINIT	POTEN	0.00000E+000	F	Initial E (V)
VLIMIT1	POTEN	-8.00000E-001	F	Scan Limit 1 (V)
VLIMIT2	POTEN	8.00000E-001	F	Scan Limit 2 (V)
VFINAL	POTEN	0.00000E+000	F	Final E (V)
SCANRATE	QUANT	2.00000E+002	A Real Number
STEPSIZE	QUANT	1.00000E+001	Step Size (mV)
CYCLES	IQUANT	3	Cycles (#)
IMODE	SELECTOR	0	I/E Range Mode
IRANGE	QUANT	2.50000E+002	Max Current (mA)
AREA	QUANT	3.84800E-001	A Real Number
EQDELAY	QUANT	1.00000E+000	Equil. Time (s)
IRCOMP	SELECTOR	0	IRComp
PFCOR	QUANT	2.50000E+002	PF Corr. (ohm)
SAMPLINGMODE	SELECTOR	0	Sampling Mode
EOC	QUANT	0	Open Circuit (V)
SEQUENCER	TOGGLE	TRUE	Run as Sequence
PSTATMODEL	IQUANT	53	Pstat Model
PSTATSECTION	LABEL	IFC5000-01520	Pstat Section
PSTATSERIALNO	LABEL	01520	Pstat Serial Number
CTRLMODE	IQUANT	1	Control Mode
ELECTROMETER	IQUANT	0	RE=0 or CS=1
IESTAB	IQUANT	2	I/E Stability
CASPEED	IQUANT	4	Control Amp Speed
CONVENTION	IQUANT	1	Current Convention
ICHRANGE	IQUANT	2	Ich Range
ICHRANGEMODE	TOGGLE	F	Ich Auto Range
ICHOFFSETENABLE	TOGGLE	F	Ich Offset Enable
ICHOFFSET	QUANT	0	Ich Offset (V)
ICHFILTER	IQUANT	3	Ich Filter
VCHRANGE	IQUANT	2	Vch Range
VCHRANGEMODE	TOGGLE	F	Vch Auto Range
VCHOFFSETENABLE	TOGGLE	F	Vch Offset Enable
VCHOFFSET	QUANT	0	Vch Offset (V)
VCHFILTER	IQUANT	3	Vch Filter
IERANGELOWERLIMIT	IQUANT	7	I/E Range Lower Limit
IERANGEMODE	TOGGLE	T	I/E AutoRange
IERANGE	IQUANT	11	I/E Range
ACHSELECT	IQUANT	1	Ach Select
ACHRANGE	IQUANT	2	Ach Range
ACHOFFSETENABLE	TOGGLE	F	Ach Offset Enable
ACHOFFSET	QUANT	0	Ach Offset (V)
ACHFILTER	IQUANT	1	Ach Filter
CABLEID	IQUANT	14	Cable ID
DCCALDATE	LABEL	5-7-2017	DC Calibration Date
ACCALDATE	LABEL	12/3/2015	AC Calibration Date
FRAMEWORKVERSION	QUANT	7.01	Framework Version
INSTRUMENTVERSION	LABEL	4.00	Instrument Version
CURVE1	TABLE
	Pt	T	Vf	Im	Vu	Sig	Ach	IERange	Over
	#	s	V vs. Ref.	A	V	V	V	#	bits
	0	0.05	-3.65120E-004	-5.33904E-006	0.00000E+000	0.00000E+000	-5.33797E-004	11	...........
	3	0.2	-3.01651E-002	-6.85017E-006	0.00000E+000	-2.99962E-002	-3.05449E-002	8	...........
	6	0.35	-6.03651E-002	-8.57526E-006	0.00000E+000	-5.99924E-002	-6.03559E-002	7	...........
	9	0.5	-9.01651E-002	-1.01335E-005	0.00000E+000	-8.99886E-002	-9.03670E-002	7	...........
	12	0.65	-1.20365E-001	-1.15432E-005	0.00000E+000	-1.19985E-001	-1.20378E-001	7	...........
	15	0.8	-1.50165E-001	-1.29244E-005	0.00000E+000	-1.49981E-001	-1.50389E-001	7	...........
	18	0.95	-1.80165E-001	-1.41303E-005	0.00000E+000	-1.79977E-001	-1.80400E-001	7	...........
	21	1.1	-2.10165E-001	-1.53328E-005	0.00000E+000	-2.10023E-001	-2.10211E-001	7	...........
	24	1.25	-2.40165E-001	-1.66890E-005	0.00000E+000	-2.40020E-001	-2.40222E-001	7	...........
	27	1.4	-2.70165E-001	-1.79083E-005	0.00000E+000	-2.70016E-001	-2.70233E-001	7	...........
	30	1.55	-3.00165E-001	-1.94448E-005	0.00000E+000	-3.00012E-001	-3.00445E-001	7	...........
	33	1.7	-3.30165E-001	-2.09664E-005	0.00000E+000	-3.30008E-001	-3.30256E-001	7	...........
	36	1.85	-3.60165E-001	-2.26065E-005	0.00000E+000	-3.60005E-001	-3.60067E-001	7	...........
	39	2	-3.90165E-001	-2.45122E-005	0.00000E+000	-3.90001E-001	-3.90078E-001	7	...........
	42	2.15	-4.19965E-001	-2.63110E-005	0.00000E+000	-4.19997E-001	-4.20089E-001	7	...........
	45	2.3	-4.49965E-001	-2.84521E-005	0.00000E+000	-4.49993E-001	-4.50100E-001	7	...........
	48	2.45	-4.79965E-001	-3.08589E-005	0.00000E+000	-4.79989E-001	-4.80111E-001	7	...........
	51	2.6	-5.09965E-001	-3.34911E-005	0.00000E+000	-5.09986E-001	-5.10122E-001	7	...........
	54	2.75	-5.39965E-001	-3.63638E-005	0.00000E+000	-5.39982E-001	-5.40133E-001	7	...........
	57	2.9	-5.69965E-001	-3.93234E-005	0.00000E+000	-5.69978E-001	-5.69744E-001	7	...........
	60	3.05	-5.99965E-001	-4.27823E-005	0.00000E+000	-5.99974E-001	-6.00155E-001	7	...........
	63	3.2	-6.29965E-001	-4.64165E-005	0.00000E+000	-6.30020E-001	-6.29966E-001	8	...........
	66	3.35	-6.59965E-001	-5.07905E-005	0.00000E+000	-6.60017E-001	-6.59978E-001	8	...........
	69	3.5	-6.89965E-001	-5.52313E-005	0.00000E+000	-6.90013E-001	-6.89989E-001	8	...........
	72	3.65	-7.19965E-001	-6.02063E-005	0.00000E+000	-7.20009E-001	-7.20000E-001	8	...........
	75	3.8	-7.49765E-001	-6.64835E-005	0.00000E+000	-7.50005E-001	-7.50011E-001	8	...........
	78	3.95	-7.79965E-001	-7.30612E-005	0.00000E+000	-7.80001E-001	-7.79822E-001	8	...........
	81	4.1	-7.89765E-001	-5.93382E-005	0.00000E+000	-7.90000E-001	-7.90026E-001	8	...........
	84	4.25	-7.59765E-001	-3.10075E-005	0.00000E+000	-7.60004E-001	-7.59614E-001	7	...........
	87	4.4	-7.29965E-001	-1.65654E-005	0.00000E+000	-7.30008E-001	-7.29803E-001	7	...........
	90	4.55	-6.99765E-001	-7.84205E-006	0.00000E+000	-7.00012E-001	-6.99992E-001	7	...........
	93	4.7	-6.69765E-001	-1.92960E-006	0.00000E+000	-6.70015E-001	-6.70181E-001	7	...........
	96	4.85	-6.39765E-001	1.85504E-006	0.00000E+000	-6.40019E-001	-6.39970E-001	7	...........
	99	5	-6.09965E-001	4.73110E-006	0.00000E+000	-6.10023E-001	-6.09759E-001	7	...........
	102	5.15	-5.79965E-001	6.73532E-006	0.00000E+000	-5.79977E-001	-5.80148E-001	7	...........
	105	5.3	-5.49765E-001	8.20341E-006	0.00000E+000	-5.49981E-001	-5.50137E-001	7	...........
	108	5.45	-5.20165E-001	9.20719E-006	0.00000E+000	-5.19984E-001	-5.20126E-001	7	...........
	111	5.6	-4.89965E-001	1.02293E-005	0.00000E+000	-4.89988E-001	-4.90115E-001	7	...........
	114	5.75	-4.59965E-001	1.08507E-005	0.00000E+000	-4.59992E-001	-4.60104E-001	7	...........
	117	5.9	-4.29965E-001	1.10728E-005	0.00000E+000	-4.29996E-001	-4.30093E-001	7	...........
	120	6.05	-3.99965E-001	1.17008E-005	0.00000E+000	-3.99999E-001	-3.99881E-001	7	...........
	123	6.2	-3.69965E-001	1.16473E-005	0.00000E+000	-3.70003E-001	-3.70270E-001	7	...........
	126	6.35	-3.39965E-001	1.21000E-005	0.00000E+000	-3.40007E-001	-3.40259E-001	7	...........
	129	6.5	-3.10365E-001	1.22870E-005	0.00000E+000	-3.10011E-001	-3.10248E-001	7	...........
	132	6.65	-2.80165E-001	1.23538E-005	0.00000E+000	-2.80015E-001	-2.80237E-001	7	...........
	135	6.8	-2.50165E-001	1.26879E-005	0.00000E+000	-2.50018E-001	-2.50226E-001	7	...........
	138	6.95	-2.20165E-001	1.24290E-005	0.00000E+000	-2.20022E-001	-2.20215E-001	7	...........
	141	7.1	-1.90165E-001	1.27380E-005	0.00000E+000	-1.89976E-001	-1.90204E-001	7	...........
	144	7.25	-1.60165E-001	1.27363E-005	0.00000E+000	-1.59980E-001	-1.60393E-001	7	...........
	147	7.4	-1.30365E-001	1.28398E-005	0.00000E+000	-1.29984E-001	-1.30382E-001	7	...........
	150	7.55	-1.00165E-001	1.31021E-005	0.00000E+000	-9.99874E-002	-1.00371E-001	7	...........
	153	7.7	-7.01651E-002	1.31722E-005	0.00000E+000	-6.99912E-002	-7.03596E-002	7	...........
	156	7.85	-4.03651E-002	1.34177E-005	0.00000E+000	-3.99949E-002	-4.03485E-002	7	...........
	159	8	-1.03651E-002	1.37067E-005	0.00000E+000	-9.99874E-003	-1.05375E-002	7	...........
	162	8.15	1.96349E-002	1.40942E-005	0.00000E+000	1.99975E-002	1.96737E-002	7	...........
	165	8.3	4.96349E-002	1.44733E-005	0.00000E+000	4.99937E-002	4.94847E-002	7	...........
	168	8.45	7.96349E-002	1.51714E-005	0.00000E+000	7.99899E-002	7.94958E-002	7	...........
	171	8.6	1.09635E-001	1.54721E-005	0.00000E+000	1.09986E-001	1.09507E-001	7	...........
[...]
	921	46.1	3.89635E-001	-8.45501E-006	0.00000E+000	3.90001E-001	3.89210E-001	7	...........
	922	46.15	3.79435E-001	-8.50679E-006	0.00000E+000	3.80002E-001	3.79407E-001	7	...........
	923	46.2	3.69435E-001	-8.66713E-006	0.00000E+000	3.70003E-001	3.69203E-001	7	...........
	924	46.25	3.59435E-001	-8.85920E-006	0.00000E+000	3.60005E-001	3.59199E-001	7	...........
	925	46.3	3.49435E-001	-9.06964E-006	0.00000E+000	3.50006E-001	3.49396E-001	7	...........
	926	46.35	3.39435E-001	-9.20158E-006	0.00000E+000	3.40007E-001	3.39392E-001	7	...........
	927	46.4	3.29635E-001	-9.40535E-006	0.00000E+000	3.30008E-001	3.29388E-001	7	...........
	928	46.45	3.19435E-001	-9.54731E-006	0.00000E+000	3.20010E-001	3.19184E-001	7	...........
	929	46.5	3.09635E-001	-9.65587E-006	0.00000E+000	3.10011E-001	3.09381E-001	7	...........
	930	46.55	2.99435E-001	-9.70264E-006	0.00000E+000	3.00012E-001	2.99377E-001	7	...........
	931	46.6	2.89435E-001	-9.84293E-006	0.00000E+000	2.90013E-001	2.89173E-001	7	...........
	932	46.65	2.79235E-001	-9.87634E-006	0.00000E+000	2.80015E-001	2.79370E-001	7	...........
	933	46.7	2.69635E-001	-1.03139E-005	0.00000E+000	2.70016E-001	2.69366E-001	7	...........
	934	46.75	2.59635E-001	-1.03457E-005	0.00000E+000	2.60017E-001	2.59162E-001	7	...........
	935	46.8	2.49435E-001	-1.04175E-005	0.00000E+000	2.50018E-001	2.49359E-001	7	...........
	936	46.85	2.39435E-001	-1.04743E-005	0.00000E+000	2.40020E-001	2.39355E-001	7	...........
	937	46.9	2.29435E-001	-1.05928E-005	0.00000E+000	2.30021E-001	2.29351E-001	7	...........
	938	46.95	2.19635E-001	-1.07766E-005	0.00000E+000	2.20022E-001	2.19548E-001	7	...........
	939	47	2.09435E-001	-1.07465E-005	0.00000E+000	2.10023E-001	2.09344E-001	7	...........
	940	47.05	1.99435E-001	-1.10438E-005	0.00000E+000	2.00025E-001	1.99540E-001	7	...........
	941	47.1	1.89635E-001	-1.10805E-005	0.00000E+000	1.90026E-001	1.89336E-001	7	...........
	942	47.15	1.79435E-001	-1.13411E-005	0.00000E+000	1.79977E-001	1.79333E-001	7	...........
	943	47.2	1.69635E-001	-1.12225E-005	0.00000E+000	1.69979E-001	1.69329E-001	7	...........
	944	47.25	1.59635E-001	-1.15749E-005	0.00000E+000	1.59980E-001	1.59525E-001	7	...........
	945	47.3	1.49635E-001	-1.14363E-005	0.00000E+000	1.49981E-001	1.49322E-001	7	...........
	946	47.35	1.39635E-001	-1.17369E-005	0.00000E+000	1.39982E-001	1.39318E-001	7	...........
	947	47.4	1.29635E-001	-1.17486E-005	0.00000E+000	1.29984E-001	1.29314E-001	7	...........
	948	47.45	1.19635E-001	-1.20242E-005	0.00000E+000	1.19985E-001	1.19310E-001	7	...........
	949	47.5	1.09635E-001	-1.20275E-005	0.00000E+000	1.09986E-001	1.09307E-001	7	...........
	950	47.55	9.96349E-002	-1.21277E-005	0.00000E+000	9.99874E-002	9.95032E-002	7	...........
	951	47.6	8.96349E-002	-1.22998E-005	0.00000E+000	8.99886E-002	8.92994E-002	7	...........
	952	47.65	7.96349E-002	-1.24985E-005	0.00000E+000	7.99899E-002	7.92957E-002	7	...........
	953	47.7	6.96349E-002	-1.25269E-005	0.00000E+000	6.99912E-002	6.94921E-002	7	...........
	954	47.75	5.96349E-002	-1.26488E-005	0.00000E+000	5.99924E-002	5.92883E-002	7	...........
	955	47.8	4.96349E-002	-1.28142E-005	0.00000E+000	4.99937E-002	4.94847E-002	7	...........
	956	47.85	3.98349E-002	-1.28476E-005	0.00000E+000	3.99949E-002	3.94810E-002	7	...........
	957	47.9	2.96349E-002	-1.30397E-005	0.00000E+000	2.99962E-002	2.96774E-002	7	...........
	958	47.95	1.96349E-002	-1.30263E-005	0.00000E+000	1.99975E-002	1.96737E-002	7	...........
	959	48	9.63488E-003	-1.30397E-005	0.00000E+000	9.99874E-003	9.46990E-003	7	...........
	960	48.05	-3.65120E-004	-1.34689E-005	0.00000E+000	0.00000E+000	-5.33797E-004	7	...........