Folder: Tesis/Data/CV_Steel_Disk_No_Material_2 (part 3)

File: CV_#5.DTA
EXPLAIN
TAG	CV
TITLE	LABEL	Cyclic Voltammetry	Test Identifier
DATE	LABEL	12-7-2017	Date
TIME	LABEL	17:23:13	Time
NOTES	NOTES	1	Notes...

PSTAT	PSTAT	IFC5000-01520	Potentiostat
VINIT	POTEN	0.00000E+000	F	Initial E (V)
VLIMIT1	POTEN	-8.00000E-001	F	Scan Limit 1 (V)
VLIMIT2	POTEN	8.00000E-001	F	Scan Limit 2 (V)
VFINAL	POTEN	0.00000E+000	F	Final E (V)
SCANRATE	QUANT	3.99999E+002	A Real Number
STEPSIZE	QUANT	1.00000E+001	Step Size (mV)
CYCLES	IQUANT	3	Cycles (#)
IMODE	SELECTOR	0	I/E Range Mode
IRANGE	QUANT	2.50000E+002	Max Current (mA)
AREA	QUANT	3.84800E-001	A Real Number
EQDELAY	QUANT	1.00000E+000	Equil. Time (s)
IRCOMP	SELECTOR	0	IRComp
PFCOR	QUANT	2.50000E+002	PF Corr. (ohm)
SAMPLINGMODE	SELECTOR	0	Sampling Mode
EOC	QUANT	0	Open Circuit (V)
SEQUENCER	TOGGLE	TRUE	Run as Sequence
PSTATMODEL	IQUANT	53	Pstat Model
PSTATSECTION	LABEL	IFC5000-01520	Pstat Section
PSTATSERIALNO	LABEL	01520	Pstat Serial Number
CTRLMODE	IQUANT	1	Control Mode
ELECTROMETER	IQUANT	0	RE=0 or CS=1
IESTAB	IQUANT	2	I/E Stability
CASPEED	IQUANT	4	Control Amp Speed
CONVENTION	IQUANT	1	Current Convention
ICHRANGE	IQUANT	2	Ich Range
ICHRANGEMODE	TOGGLE	F	Ich Auto Range
ICHOFFSETENABLE	TOGGLE	F	Ich Offset Enable
ICHOFFSET	QUANT	0	Ich Offset (V)
ICHFILTER	IQUANT	3	Ich Filter
VCHRANGE	IQUANT	2	Vch Range
VCHRANGEMODE	TOGGLE	F	Vch Auto Range
VCHOFFSETENABLE	TOGGLE	F	Vch Offset Enable
VCHOFFSET	QUANT	0	Vch Offset (V)
VCHFILTER	IQUANT	3	Vch Filter
IERANGELOWERLIMIT	IQUANT	7	I/E Range Lower Limit
IERANGEMODE	TOGGLE	T	I/E AutoRange
IERANGE	IQUANT	11	I/E Range
ACHSELECT	IQUANT	1	Ach Select
ACHRANGE	IQUANT	2	Ach Range
ACHOFFSETENABLE	TOGGLE	F	Ach Offset Enable
ACHOFFSET	QUANT	0	Ach Offset (V)
ACHFILTER	IQUANT	1	Ach Filter
CABLEID	IQUANT	14	Cable ID
DCCALDATE	LABEL	5-7-2017	DC Calibration Date
ACCALDATE	LABEL	12/3/2015	AC Calibration Date
FRAMEWORKVERSION	QUANT	7.01	Framework Version
INSTRUMENTVERSION	LABEL	4.00	Instrument Version
CURVE1	TABLE
	Pt	T	Vf	Im	Vu	Sig	Ach	IERange	Over
	#	s	V vs. Ref.	A	V	V	V	#	bits
	0	0.025	-3.65120E-004	-2.20028E-005	0.00000E+000	0.00000E+000	-5.33797E-004	11	...........
	3	0.1	-3.03651E-002	-1.03227E-005	0.00000E+000	-2.99962E-002	-3.03448E-002	8	...........
	6	0.175	-6.03651E-002	-1.36142E-005	0.00000E+000	-5.99924E-002	-6.05560E-002	7	...........
	9	0.25	-9.03651E-002	-1.58890E-005	0.00000E+000	-8.99886E-002	-9.01669E-002	7	...........
	12	0.325	-1.20365E-001	-1.84043E-005	0.00000E+000	-1.19985E-001	-1.20378E-001	7	...........
	15	0.4	-1.50165E-001	-2.05822E-005	0.00000E+000	-1.49981E-001	-1.50189E-001	7	...........
	18	0.475	-1.80365E-001	-2.28002E-005	0.00000E+000	-1.79977E-001	-1.80200E-001	7	...........
	21	0.55	-2.10165E-001	-2.49381E-005	0.00000E+000	-2.10023E-001	-2.10411E-001	7	...........
	24	0.625	-2.40165E-001	-2.70826E-005	0.00000E+000	-2.40020E-001	-2.40222E-001	7	...........
	27	0.7	-2.70365E-001	-2.92572E-005	0.00000E+000	-2.70016E-001	-2.70434E-001	7	...........
	30	0.775	-3.00165E-001	-3.16956E-005	0.00000E+000	-3.00012E-001	-3.00045E-001	7	...........
	33	0.85	-3.30165E-001	-3.41608E-005	0.00000E+000	-3.30008E-001	-3.30256E-001	7	...........
	36	0.925	-3.60165E-001	-3.68047E-005	0.00000E+000	-3.60005E-001	-3.60067E-001	7	...........
	39	1	-3.89965E-001	-3.97559E-005	0.00000E+000	-3.90001E-001	-3.90278E-001	7	...........
	42	1.075	-4.19965E-001	-4.29109E-005	0.00000E+000	-4.19997E-001	-4.20089E-001	7	...........
	45	1.15	-4.49965E-001	-4.63831E-005	0.00000E+000	-4.49993E-001	-4.50300E-001	8	...........
	48	1.225	-4.79965E-001	-5.00393E-005	0.00000E+000	-4.79989E-001	-4.79911E-001	8	...........
	51	1.3	-5.09965E-001	-5.41963E-005	0.00000E+000	-5.09986E-001	-5.10122E-001	8	...........
	54	1.375	-5.39965E-001	-5.82865E-005	0.00000E+000	-5.39982E-001	-5.40133E-001	8	...........
	57	1.45	-5.70165E-001	-6.30778E-005	0.00000E+000	-5.69978E-001	-5.69944E-001	8	...........
	60	1.525	-5.99965E-001	-6.79694E-005	0.00000E+000	-5.99974E-001	-5.99955E-001	8	...........
	63	1.6	-6.29765E-001	-7.35955E-005	0.00000E+000	-6.30020E-001	-6.29966E-001	8	...........
	66	1.675	-6.59965E-001	-7.98059E-005	0.00000E+000	-6.60017E-001	-6.59978E-001	8	...........
	69	1.75	-6.89965E-001	-8.62834E-005	0.00000E+000	-6.90013E-001	-6.89989E-001	8	...........
	72	1.825	-7.19965E-001	-9.39129E-005	0.00000E+000	-7.20009E-001	-7.20000E-001	8	...........
	75	1.9	-7.49765E-001	-1.02193E-004	0.00000E+000	-7.50005E-001	-7.50011E-001	8	...........
	78	1.975	-7.79965E-001	-1.11693E-004	0.00000E+000	-7.80001E-001	-7.80022E-001	8	...........
	81	2.05	-7.89765E-001	-9.06407E-005	0.00000E+000	-7.90000E-001	-7.89625E-001	8	...........
	84	2.125	-7.59965E-001	-4.52646E-005	0.00000E+000	-7.60004E-001	-7.59814E-001	8	...........
	87	2.2	-7.29765E-001	-2.11016E-005	0.00000E+000	-7.30008E-001	-7.30003E-001	7	...........
	90	2.275	-6.99965E-001	-6.33889E-006	0.00000E+000	-7.00012E-001	-6.99792E-001	7	...........
	93	2.35	-6.69965E-001	3.46176E-006	0.00000E+000	-6.70015E-001	-6.69981E-001	7	...........
	96	2.425	-6.39965E-001	1.01926E-005	0.00000E+000	-6.40019E-001	-6.39970E-001	7	...........
	99	2.5	-6.09965E-001	1.45902E-005	0.00000E+000	-6.10023E-001	-6.09959E-001	7	...........
	102	2.575	-5.79965E-001	1.76233E-005	0.00000E+000	-5.79977E-001	-5.79948E-001	7	...........
	105	2.65	-5.49965E-001	1.97945E-005	0.00000E+000	-5.49981E-001	-5.49937E-001	7	...........
	108	2.725	-5.19965E-001	2.12158E-005	0.00000E+000	-5.19984E-001	-5.20126E-001	7	...........
	111	2.8	-4.89965E-001	2.21177E-005	0.00000E+000	-4.89988E-001	-4.90115E-001	7	...........
	114	2.875	-4.59965E-001	2.25921E-005	0.00000E+000	-4.59992E-001	-4.60104E-001	7	...........
	117	2.95	-4.29965E-001	2.32451E-005	0.00000E+000	-4.29996E-001	-4.30093E-001	7	...........
	120	3.025	-4.00165E-001	2.34188E-005	0.00000E+000	-3.99999E-001	-4.00081E-001	7	...........
	123	3.1	-3.70165E-001	2.34839E-005	0.00000E+000	-3.70003E-001	-3.70070E-001	7	...........
	126	3.175	-3.40165E-001	2.35975E-005	0.00000E+000	-3.40007E-001	-3.40259E-001	7	...........
	129	3.25	-3.09965E-001	2.34589E-005	0.00000E+000	-3.10011E-001	-3.10248E-001	7	...........
	132	3.325	-2.80165E-001	2.34906E-005	0.00000E+000	-2.80015E-001	-2.80237E-001	7	...........
	135	3.4	-2.50165E-001	2.35190E-005	0.00000E+000	-2.50018E-001	-2.50226E-001	7	...........
	138	3.475	-2.20365E-001	2.34438E-005	0.00000E+000	-2.20022E-001	-2.20415E-001	7	...........
	141	3.55	-1.90165E-001	2.32434E-005	0.00000E+000	-1.89976E-001	-1.90204E-001	7	...........
	144	3.625	-1.60365E-001	2.34205E-005	0.00000E+000	-1.59980E-001	-1.60193E-001	7	...........
	147	3.7	-1.30165E-001	2.33303E-005	0.00000E+000	-1.29984E-001	-1.30382E-001	7	...........
	150	3.775	-1.00165E-001	2.34990E-005	0.00000E+000	-9.99874E-002	-1.00171E-001	7	...........
	153	3.85	-7.03651E-002	2.37345E-005	0.00000E+000	-6.99912E-002	-7.05597E-002	7	...........
	156	3.925	-4.03651E-002	2.39867E-005	0.00000E+000	-3.99949E-002	-4.03485E-002	7	...........
	159	4	-1.05651E-002	2.41019E-005	0.00000E+000	-9.99874E-003	-1.03374E-002	7	...........
	162	4.075	1.94349E-002	2.48568E-005	0.00000E+000	1.99975E-002	1.94736E-002	7	...........
	165	4.15	4.96349E-002	2.53495E-005	0.00000E+000	4.99937E-002	4.94847E-002	7	...........
	168	4.225	7.94349E-002	2.61045E-005	0.00000E+000	7.99899E-002	7.94958E-002	7	...........
	171	4.3	1.09435E-001	2.67775E-005	0.00000E+000	1.09986E-001	1.09507E-001	7	...........
[...]
	921	23.05	3.89235E-001	-1.74323E-005	0.00000E+000	3.90001E-001	3.89210E-001	7	...........
	922	23.075	3.79435E-001	-1.75224E-005	0.00000E+000	3.80002E-001	3.79207E-001	7	...........
	923	23.1	3.69435E-001	-1.77396E-005	0.00000E+000	3.70003E-001	3.69403E-001	7	...........
	924	23.125	3.59635E-001	-1.79116E-005	0.00000E+000	3.60005E-001	3.59199E-001	7	...........
	925	23.15	3.49435E-001	-1.81120E-005	0.00000E+000	3.50006E-001	3.49195E-001	7	...........
	926	23.175	3.39635E-001	-1.85012E-005	0.00000E+000	3.40007E-001	3.39192E-001	7	...........
	927	23.2	3.29435E-001	-1.86448E-005	0.00000E+000	3.30008E-001	3.29188E-001	7	...........
	928	23.225	3.19435E-001	-1.87200E-005	0.00000E+000	3.20010E-001	3.19384E-001	7	...........
	929	23.25	3.09435E-001	-1.89555E-005	0.00000E+000	3.10011E-001	3.09381E-001	7	...........
	930	23.275	2.99435E-001	-1.90139E-005	0.00000E+000	3.00012E-001	2.99177E-001	7	...........
	931	23.3	2.89635E-001	-1.94582E-005	0.00000E+000	2.90013E-001	2.89373E-001	7	...........
	932	23.325	2.79635E-001	-1.93630E-005	0.00000E+000	2.80015E-001	2.79170E-001	7	...........
	933	23.35	2.69635E-001	-1.94064E-005	0.00000E+000	2.70016E-001	2.69366E-001	7	...........
	934	23.375	2.59435E-001	-1.96787E-005	0.00000E+000	2.60017E-001	2.59362E-001	7	...........
	935	23.4	2.49635E-001	-1.99375E-005	0.00000E+000	2.50018E-001	2.49359E-001	7	...........
	936	23.425	2.39435E-001	-1.98807E-005	0.00000E+000	2.40020E-001	2.39155E-001	7	...........
	937	23.45	2.29635E-001	-2.02315E-005	0.00000E+000	2.30021E-001	2.29351E-001	7	...........
	938	23.475	2.19635E-001	-2.02248E-005	0.00000E+000	2.20022E-001	2.19347E-001	7	...........
	939	23.5	2.09635E-001	-2.03968E-005	0.00000E+000	2.10023E-001	2.09344E-001	7	...........
	940	23.525	1.99435E-001	-2.05221E-005	0.00000E+000	2.00025E-001	1.99340E-001	7	...........
	941	23.55	1.89635E-001	-2.08778E-005	0.00000E+000	1.90026E-001	1.89336E-001	7	...........
	942	23.575	1.79635E-001	-2.08895E-005	0.00000E+000	1.79977E-001	1.79533E-001	7	...........
	943	23.6	1.69635E-001	-2.10399E-005	0.00000E+000	1.69979E-001	1.69329E-001	7	...........
	944	23.625	1.59635E-001	-2.11033E-005	0.00000E+000	1.59980E-001	1.59325E-001	7	...........
	945	23.65	1.49435E-001	-2.13305E-005	0.00000E+000	1.49981E-001	1.49122E-001	7	...........
	946	23.675	1.39435E-001	-2.15593E-005	0.00000E+000	1.39982E-001	1.39318E-001	7	...........
	947	23.7	1.29635E-001	-2.16879E-005	0.00000E+000	1.29984E-001	1.29514E-001	7	...........
	948	23.725	1.19635E-001	-2.15543E-005	0.00000E+000	1.19985E-001	1.19310E-001	7	...........
	949	23.75	1.09435E-001	-2.19117E-005	0.00000E+000	1.09986E-001	1.09507E-001	7	...........
	950	23.775	9.96349E-002	-2.19969E-005	0.00000E+000	9.99874E-002	9.93031E-002	7	...........
	951	23.8	8.96349E-002	-2.22775E-005	0.00000E+000	8.99886E-002	8.94995E-002	7	...........
	952	23.825	7.98349E-002	-2.23443E-005	0.00000E+000	7.99899E-002	7.94958E-002	7	...........
	953	23.85	6.96349E-002	-2.27201E-005	0.00000E+000	6.99912E-002	6.94921E-002	7	...........
	954	23.875	5.96349E-002	-2.27752E-005	0.00000E+000	5.99924E-002	5.94884E-002	7	...........
	955	23.9	4.96349E-002	-2.28670E-005	0.00000E+000	4.99937E-002	4.96848E-002	7	...........
	956	23.925	3.98349E-002	-2.31226E-005	0.00000E+000	3.99949E-002	3.94810E-002	7	...........
	957	23.95	2.96349E-002	-2.31343E-005	0.00000E+000	2.99962E-002	2.94773E-002	7	...........
	958	23.975	1.96349E-002	-2.33280E-005	0.00000E+000	1.99975E-002	1.94736E-002	7	...........
	959	24	9.63488E-003	-2.32729E-005	0.00000E+000	9.99874E-003	9.46990E-003	7	...........
	960	24.025	-3.65120E-004	-2.35802E-005	0.00000E+000	0.00000E+000	-3.33723E-004	7	...........