Folder: Tesis/Data/CV_Steel_Disk_No_Material_2

File: CV_#1.DTA
EXPLAIN
TAG	CV
TITLE	LABEL	Cyclic Voltammetry	Test Identifier
DATE	LABEL	12-7-2017	Date
TIME	LABEL	17:11:04	Time
NOTES	NOTES	1	Notes...

PSTAT	PSTAT	IFC5000-01520	Potentiostat
VINIT	POTEN	0.00000E+000	F	Initial E (V)
VLIMIT1	POTEN	-8.00000E-001	F	Scan Limit 1 (V)
VLIMIT2	POTEN	8.00000E-001	F	Scan Limit 2 (V)
VFINAL	POTEN	0.00000E+000	F	Final E (V)
SCANRATE	QUANT	2.50000E+001	A Real Number
STEPSIZE	QUANT	1.00000E+001	Step Size (mV)
CYCLES	IQUANT	3	Cycles (#)
IMODE	SELECTOR	0	I/E Range Mode
IRANGE	QUANT	2.50000E+002	Max Current (mA)
AREA	QUANT	3.84800E-001	A Real Number
EQDELAY	QUANT	1.00000E+000	Equil. Time (s)
IRCOMP	SELECTOR	0	IRComp
PFCOR	QUANT	2.50000E+002	PF Corr. (ohm)
SAMPLINGMODE	SELECTOR	0	Sampling Mode
EOC	QUANT	0	Open Circuit (V)
SEQUENCER	TOGGLE	TRUE	Run as Sequence
PSTATMODEL	IQUANT	53	Pstat Model
PSTATSECTION	LABEL	IFC5000-01520	Pstat Section
PSTATSERIALNO	LABEL	01520	Pstat Serial Number
CTRLMODE	IQUANT	1	Control Mode
ELECTROMETER	IQUANT	0	RE=0 or CS=1
IESTAB	IQUANT	2	I/E Stability
CASPEED	IQUANT	4	Control Amp Speed
CONVENTION	IQUANT	1	Current Convention
ICHRANGE	IQUANT	2	Ich Range
ICHRANGEMODE	TOGGLE	F	Ich Auto Range
ICHOFFSETENABLE	TOGGLE	F	Ich Offset Enable
ICHOFFSET	QUANT	0	Ich Offset (V)
ICHFILTER	IQUANT	3	Ich Filter
VCHRANGE	IQUANT	2	Vch Range
VCHRANGEMODE	TOGGLE	F	Vch Auto Range
VCHOFFSETENABLE	TOGGLE	F	Vch Offset Enable
VCHOFFSET	QUANT	0	Vch Offset (V)
VCHFILTER	IQUANT	3	Vch Filter
IERANGELOWERLIMIT	IQUANT	7	I/E Range Lower Limit
IERANGEMODE	TOGGLE	T	I/E AutoRange
IERANGE	IQUANT	11	I/E Range
ACHSELECT	IQUANT	1	Ach Select
ACHRANGE	IQUANT	2	Ach Range
ACHOFFSETENABLE	TOGGLE	F	Ach Offset Enable
ACHOFFSET	QUANT	0	Ach Offset (V)
ACHFILTER	IQUANT	1	Ach Filter
CABLEID	IQUANT	14	Cable ID
DCCALDATE	LABEL	5-7-2017	DC Calibration Date
ACCALDATE	LABEL	12/3/2015	AC Calibration Date
FRAMEWORKVERSION	QUANT	7.01	Framework Version
INSTRUMENTVERSION	LABEL	4.00	Instrument Version
CURVE1	TABLE
	Pt	T	Vf	Im	Vu	Sig	Ach	IERange	Over
	#	s	V vs. Ref.	A	V	V	V	#	bits
	0	0.4	-3.65120E-004	1.13247E-005	0.00000E+000	0.00000E+000	-7.33871E-004	11	...........
	3	1.6	-3.03651E-002	-1.87515E-006	0.00000E+000	-2.99962E-002	-3.05449E-002	8	...........
	6	2.8	-6.05651E-002	-2.24526E-006	0.00000E+000	-5.99924E-002	-6.05560E-002	7	...........
	9	4	-9.01651E-002	-2.62273E-006	0.00000E+000	-8.99886E-002	-9.05671E-002	7	...........
	12	5.2	-1.20365E-001	-3.01689E-006	0.00000E+000	-1.19985E-001	-1.20378E-001	7	...........
	15	6.4	-1.50165E-001	-3.39268E-006	0.00000E+000	-1.49981E-001	-1.50389E-001	7	...........
	18	7.6	-1.80165E-001	-4.10752E-006	0.00000E+000	-1.79977E-001	-1.80600E-001	7	...........
	21	8.8	-2.10165E-001	-4.82069E-006	0.00000E+000	-2.10023E-001	-2.10411E-001	7	...........
	24	10	-2.40165E-001	-5.51883E-006	0.00000E+000	-2.40020E-001	-2.40222E-001	7	...........
	27	11.2	-2.70165E-001	-6.39400E-006	0.00000E+000	-2.70016E-001	-2.70233E-001	7	...........
	30	12.4	-3.00165E-001	-6.84161E-006	0.00000E+000	-3.00012E-001	-3.00445E-001	7	...........
	33	13.6	-3.30165E-001	-7.79028E-006	0.00000E+000	-3.30008E-001	-3.30256E-001	7	...........
	36	14.8	-3.60165E-001	-8.61201E-006	0.00000E+000	-3.60005E-001	-3.60467E-001	7	...........
	39	16	-3.89965E-001	-9.54564E-006	0.00000E+000	-3.90001E-001	-3.90278E-001	7	...........
	42	17.2	-4.19965E-001	-1.02505E-005	0.00000E+000	-4.19997E-001	-4.20089E-001	7	...........
	45	18.4	-4.49965E-001	-1.13411E-005	0.00000E+000	-4.49993E-001	-4.50100E-001	7	...........
	48	19.6	-4.79765E-001	-1.25336E-005	0.00000E+000	-4.79989E-001	-4.79911E-001	7	...........
	51	20.8	-5.09965E-001	-1.37729E-005	0.00000E+000	-5.09986E-001	-5.10122E-001	7	...........
	54	22	-5.39965E-001	-1.50773E-005	0.00000E+000	-5.39982E-001	-5.40133E-001	7	...........
	57	23.2	-5.69965E-001	-1.66473E-005	0.00000E+000	-5.69978E-001	-5.69944E-001	7	...........
	60	24.4	-5.99965E-001	-1.83425E-005	0.00000E+000	-6.00024E-001	-5.99955E-001	7	...........
	63	25.6	-6.29965E-001	-2.04753E-005	0.00000E+000	-6.30020E-001	-6.30167E-001	7	...........
	66	26.8	-6.59965E-001	-2.26633E-005	0.00000E+000	-6.60017E-001	-6.60178E-001	7	...........
	69	28	-6.89965E-001	-2.59435E-005	0.00000E+000	-6.90013E-001	-6.89989E-001	7	...........
	72	29.2	-7.19965E-001	-2.92371E-005	0.00000E+000	-7.20009E-001	-7.20000E-001	7	...........
	75	30.4	-7.49765E-001	-3.30218E-005	0.00000E+000	-7.50005E-001	-7.50011E-001	7	...........
	78	31.6	-7.79965E-001	-3.69517E-005	0.00000E+000	-7.80001E-001	-7.79822E-001	7	...........
	81	32.8	-7.89765E-001	-3.39470E-005	0.00000E+000	-7.90000E-001	-7.89825E-001	7	...........
	84	34	-7.59765E-001	-2.36370E-005	0.00000E+000	-7.60004E-001	-7.59814E-001	7	...........
	87	35.2	-7.29765E-001	-1.74206E-005	0.00000E+000	-7.30008E-001	-7.30003E-001	7	...........
	90	36.4	-6.99965E-001	-1.29712E-005	0.00000E+000	-7.00012E-001	-6.99992E-001	7	...........
	93	37.6	-6.69765E-001	-9.77279E-006	0.00000E+000	-6.70015E-001	-6.69981E-001	7	...........
	96	38.8	-6.39765E-001	-7.43620E-006	0.00000E+000	-6.40019E-001	-6.40170E-001	7	...........
	99	40	-6.09965E-001	-5.60902E-006	0.00000E+000	-6.10023E-001	-6.09959E-001	7	...........
	102	41.2	-5.79965E-001	-4.13925E-006	0.00000E+000	-5.79977E-001	-5.80148E-001	7	...........
	105	42.4	-5.49965E-001	-2.78640E-006	0.00000E+000	-5.49981E-001	-5.49937E-001	7	...........
	108	43.6	-5.19765E-001	-2.07657E-006	0.00000E+000	-5.19984E-001	-5.20126E-001	7	...........
	111	44.8	-4.89965E-001	-9.67572E-007	0.00000E+000	-4.89988E-001	-4.90115E-001	7	...........
	114	46	-4.59965E-001	-3.29562E-007	0.00000E+000	-4.59992E-001	-4.60104E-001	7	...........
	117	47.2	-4.30165E-001	1.19718E-007	0.00000E+000	-4.29996E-001	-4.30093E-001	7	...........
	120	48.4	-4.00165E-001	6.17433E-007	0.00000E+000	-3.99999E-001	-4.00081E-001	7	...........
	123	49.6	-3.69965E-001	8.94684E-007	0.00000E+000	-3.70003E-001	-3.70070E-001	7	...........
	126	50.8	-3.40165E-001	1.24375E-006	0.00000E+000	-3.40007E-001	-3.40459E-001	7	...........
	129	52	-3.10165E-001	1.43415E-006	0.00000E+000	-3.10011E-001	-3.10448E-001	7	...........
	132	53.2	-2.80165E-001	1.73479E-006	0.00000E+000	-2.80015E-001	-2.80037E-001	7	...........
	135	54.4	-2.50165E-001	1.77153E-006	0.00000E+000	-2.50018E-001	-2.50026E-001	7	...........
	138	55.6	-2.20165E-001	2.02540E-006	0.00000E+000	-2.20022E-001	-2.20215E-001	7	...........
	141	56.8	-1.90165E-001	2.10223E-006	0.00000E+000	-1.89976E-001	-1.90404E-001	7	...........
	144	58	-1.60165E-001	2.16068E-006	0.00000E+000	-1.59980E-001	-1.60193E-001	7	...........
	147	59.2	-1.30165E-001	2.43626E-006	0.00000E+000	-1.29984E-001	-1.30382E-001	7	...........
	150	60.4	-1.00165E-001	2.45464E-006	0.00000E+000	-9.99874E-002	-1.00371E-001	7	...........
	153	61.6	-7.03651E-002	2.52812E-006	0.00000E+000	-6.99912E-002	-7.03596E-002	7	...........
	156	62.8	-4.03651E-002	2.73523E-006	0.00000E+000	-3.99949E-002	-4.03485E-002	7	...........
	159	64	-1.01651E-002	2.96070E-006	0.00000E+000	-9.99874E-003	-1.03374E-002	7	...........
	162	65.2	1.96349E-002	3.00413E-006	0.00000E+000	1.99975E-002	1.94736E-002	7	...........
	165	66.4	4.94349E-002	3.22292E-006	0.00000E+000	4.99937E-002	4.94847E-002	7	...........
	168	67.6	7.96349E-002	3.47345E-006	0.00000E+000	7.99899E-002	7.94958E-002	7	...........
	171	68.8	1.09435E-001	3.57533E-006	0.00000E+000	1.09986E-001	1.09507E-001	7	...........
[...]
	921	368.8	3.89435E-001	-7.03683E-007	0.00000E+000	3.90001E-001	3.89410E-001	7	...........
	922	369.2	3.79435E-001	-6.93662E-007	0.00000E+000	3.80002E-001	3.79207E-001	7	...........
	923	369.6	3.69435E-001	-7.65480E-007	0.00000E+000	3.70003E-001	3.69403E-001	7	...........
	924	370	3.59435E-001	-8.57340E-007	0.00000E+000	3.60005E-001	3.59199E-001	7	...........
	925	370.4	3.49235E-001	-1.02269E-006	0.00000E+000	3.50006E-001	3.49396E-001	7	...........
	926	370.8	3.39635E-001	-1.15296E-006	0.00000E+000	3.40007E-001	3.39392E-001	7	...........
	927	371.2	3.29435E-001	-1.17969E-006	0.00000E+000	3.30008E-001	3.29188E-001	7	...........
	928	371.6	3.19635E-001	-1.23814E-006	0.00000E+000	3.20010E-001	3.19384E-001	7	...........
	929	372	3.09635E-001	-1.20975E-006	0.00000E+000	3.10011E-001	3.09181E-001	7	...........
	930	372.4	2.99635E-001	-1.29827E-006	0.00000E+000	3.00012E-001	2.99177E-001	7	...........
	931	372.8	2.89635E-001	-1.30662E-006	0.00000E+000	2.90013E-001	2.89373E-001	7	...........
	932	373.2	2.79635E-001	-1.48867E-006	0.00000E+000	2.80015E-001	2.79170E-001	7	...........
	933	373.6	2.69635E-001	-1.61393E-006	0.00000E+000	2.70016E-001	2.69566E-001	7	...........
	934	374	2.59435E-001	-1.73085E-006	0.00000E+000	2.60017E-001	2.59362E-001	7	...........
	935	374.4	2.49435E-001	-1.63398E-006	0.00000E+000	2.50018E-001	2.49359E-001	7	...........
	936	374.8	2.39435E-001	-1.67907E-006	0.00000E+000	2.40020E-001	2.39555E-001	7	...........
	937	375.2	2.29635E-001	-1.67573E-006	0.00000E+000	2.30021E-001	2.29351E-001	7	...........
	938	375.6	2.19635E-001	-1.81937E-006	0.00000E+000	2.20022E-001	2.19347E-001	7	...........
	939	376	2.09635E-001	-1.94630E-006	0.00000E+000	2.10023E-001	2.09144E-001	7	...........
	940	376.4	1.99435E-001	-2.04317E-006	0.00000E+000	2.00025E-001	1.99140E-001	7	...........
	941	376.8	1.89435E-001	-1.86780E-006	0.00000E+000	1.89976E-001	1.89136E-001	7	...........
	942	377.2	1.79635E-001	-2.02480E-006	0.00000E+000	1.79977E-001	1.79533E-001	7	...........
	943	377.6	1.69435E-001	-2.00977E-006	0.00000E+000	1.69979E-001	1.69129E-001	7	...........
	944	378	1.59635E-001	-2.18681E-006	0.00000E+000	1.59980E-001	1.59325E-001	7	...........
	945	378.4	1.49635E-001	-2.20351E-006	0.00000E+000	1.49981E-001	1.49322E-001	7	...........
	946	378.8	1.39635E-001	-2.48243E-006	0.00000E+000	1.39982E-001	1.39318E-001	7	...........
	947	379.2	1.29635E-001	-2.41228E-006	0.00000E+000	1.29984E-001	1.29514E-001	7	...........
	948	379.6	1.19635E-001	-2.37554E-006	0.00000E+000	1.19985E-001	1.19511E-001	7	...........
	949	380	1.09635E-001	-2.51583E-006	0.00000E+000	1.09986E-001	1.09307E-001	7	...........
	950	380.4	9.94349E-002	-2.53421E-006	0.00000E+000	9.99874E-002	9.95032E-002	7	...........
	951	380.8	8.96349E-002	-2.56093E-006	0.00000E+000	8.99886E-002	8.92994E-002	7	...........
	952	381.2	7.96349E-002	-2.80311E-006	0.00000E+000	7.99899E-002	7.92957E-002	7	...........
	953	381.6	6.96349E-002	-2.76970E-006	0.00000E+000	6.99912E-002	6.96922E-002	7	...........
	954	382	5.96349E-002	-2.80144E-006	0.00000E+000	5.99924E-002	5.96885E-002	7	...........
	955	382.4	4.96349E-002	-2.87659E-006	0.00000E+000	4.99937E-002	4.92846E-002	7	...........
	956	382.8	3.94349E-002	-2.94173E-006	0.00000E+000	3.99949E-002	3.96811E-002	7	...........
	957	383.2	2.94349E-002	-2.89998E-006	0.00000E+000	2.99962E-002	2.94773E-002	7	...........
	958	383.6	1.98349E-002	-3.11042E-006	0.00000E+000	1.99975E-002	1.94736E-002	7	...........
	959	384	9.83488E-003	-3.11376E-006	0.00000E+000	9.99874E-003	9.46990E-003	7	...........
	960	384.4	-1.65120E-004	-3.16220E-006	0.00000E+000	0.00000E+000	-5.33797E-004	7	...........

File: CV_#2.DTA
EXPLAIN
TAG	CV
TITLE	LABEL	Cyclic Voltammetry	Test Identifier
DATE	LABEL	12-7-2017	Date
TIME	LABEL	17:17:30	Time
NOTES	NOTES	1	Notes...

PSTAT	PSTAT	IFC5000-01520	Potentiostat
VINIT	POTEN	0.00000E+000	F	Initial E (V)
VLIMIT1	POTEN	-8.00000E-001	F	Scan Limit 1 (V)
VLIMIT2	POTEN	8.00000E-001	F	Scan Limit 2 (V)
VFINAL	POTEN	0.00000E+000	F	Final E (V)
SCANRATE	QUANT	4.99999E+001	A Real Number
STEPSIZE	QUANT	1.00000E+001	Step Size (mV)
CYCLES	IQUANT	3	Cycles (#)
IMODE	SELECTOR	0	I/E Range Mode
IRANGE	QUANT	2.50000E+002	Max Current (mA)
AREA	QUANT	3.84800E-001	A Real Number
EQDELAY	QUANT	1.00000E+000	Equil. Time (s)
IRCOMP	SELECTOR	0	IRComp
PFCOR	QUANT	2.50000E+002	PF Corr. (ohm)
SAMPLINGMODE	SELECTOR	0	Sampling Mode
EOC	QUANT	0	Open Circuit (V)
SEQUENCER	TOGGLE	TRUE	Run as Sequence
PSTATMODEL	IQUANT	53	Pstat Model
PSTATSECTION	LABEL	IFC5000-01520	Pstat Section
PSTATSERIALNO	LABEL	01520	Pstat Serial Number
CTRLMODE	IQUANT	1	Control Mode
ELECTROMETER	IQUANT	0	RE=0 or CS=1
IESTAB	IQUANT	2	I/E Stability
CASPEED	IQUANT	4	Control Amp Speed
CONVENTION	IQUANT	1	Current Convention
ICHRANGE	IQUANT	2	Ich Range
ICHRANGEMODE	TOGGLE	F	Ich Auto Range
ICHOFFSETENABLE	TOGGLE	F	Ich Offset Enable
ICHOFFSET	QUANT	0	Ich Offset (V)
ICHFILTER	IQUANT	4	Ich Filter
VCHRANGE	IQUANT	2	Vch Range
VCHRANGEMODE	TOGGLE	F	Vch Auto Range
VCHOFFSETENABLE	TOGGLE	F	Vch Offset Enable
VCHOFFSET	QUANT	0	Vch Offset (V)
VCHFILTER	IQUANT	4	Vch Filter
IERANGELOWERLIMIT	IQUANT	7	I/E Range Lower Limit
IERANGEMODE	TOGGLE	T	I/E AutoRange
IERANGE	IQUANT	11	I/E Range
ACHSELECT	IQUANT	1	Ach Select
ACHRANGE	IQUANT	2	Ach Range
ACHOFFSETENABLE	TOGGLE	F	Ach Offset Enable
ACHOFFSET	QUANT	0	Ach Offset (V)
ACHFILTER	IQUANT	1	Ach Filter
CABLEID	IQUANT	14	Cable ID
DCCALDATE	LABEL	5-7-2017	DC Calibration Date
ACCALDATE	LABEL	12/3/2015	AC Calibration Date
FRAMEWORKVERSION	QUANT	7.01	Framework Version
INSTRUMENTVERSION	LABEL	4.00	Instrument Version
CURVE1	TABLE
	Pt	T	Vf	Im	Vu	Sig	Ach	IERange	Over
	#	s	V vs. Ref.	A	V	V	V	#	bits
	0	0.2	-2.06485E-004	-2.80533E-005	0.00000E+000	0.00000E+000	-3.33723E-004	11	...........
	3	0.8	-3.04072E-002	-3.60083E-006	0.00000E+000	-2.99962E-002	-3.03448E-002	8	...........
	6	1.4	-6.04079E-002	-4.38879E-006	0.00000E+000	-5.99924E-002	-6.01558E-002	7	...........
	9	2	-9.04085E-002	-5.12035E-006	0.00000E+000	-8.99886E-002	-9.03670E-002	7	...........
	12	2.6	-1.20409E-001	-5.76338E-006	0.00000E+000	-1.19985E-001	-1.20378E-001	7	...........
	15	3.2	-1.50210E-001	-6.32958E-006	0.00000E+000	-1.49981E-001	-1.50389E-001	7	...........
	18	3.8	-1.80411E-001	-6.83900E-006	0.00000E+000	-1.79977E-001	-1.80200E-001	7	...........
	21	4.4	-2.10411E-001	-7.32336E-006	0.00000E+000	-2.10023E-001	-2.10411E-001	7	...........
	24	5	-2.40612E-001	-7.79770E-006	0.00000E+000	-2.40020E-001	-2.40222E-001	7	...........
	27	5.6	-2.70413E-001	-8.29876E-006	0.00000E+000	-2.70016E-001	-2.70233E-001	7	...........
	30	6.2	-3.00213E-001	-8.85327E-006	0.00000E+000	-3.00012E-001	-3.00245E-001	7	...........
	33	6.8	-3.30214E-001	-9.47793E-006	0.00000E+000	-3.30008E-001	-3.30256E-001	7	...........
	36	7.4	-3.60215E-001	-1.01894E-005	0.00000E+000	-3.60005E-001	-3.60267E-001	7	...........
	39	8	-3.90215E-001	-1.09928E-005	0.00000E+000	-3.90001E-001	-3.90078E-001	7	...........
	42	8.6	-4.20216E-001	-1.19081E-005	0.00000E+000	-4.19997E-001	-4.20089E-001	7	...........
	45	9.2	-4.50217E-001	-1.29403E-005	0.00000E+000	-4.49993E-001	-4.50100E-001	7	...........
	48	9.8	-4.80017E-001	-1.40927E-005	0.00000E+000	-4.79989E-001	-4.80111E-001	7	...........
	51	10.4	-5.10018E-001	-1.53771E-005	0.00000E+000	-5.09986E-001	-5.09922E-001	7	...........
	54	11	-5.40019E-001	-1.67985E-005	0.00000E+000	-5.39982E-001	-5.40133E-001	7	...........
	57	11.6	-5.70019E-001	-1.83735E-005	0.00000E+000	-5.69978E-001	-5.69944E-001	7	...........
	60	12.2	-6.00020E-001	-2.01439E-005	0.00000E+000	-5.99974E-001	-5.99955E-001	7	...........
	63	12.8	-6.30021E-001	-2.21315E-005	0.00000E+000	-6.30020E-001	-6.30167E-001	7	...........
	66	13.4	-6.60022E-001	-2.43612E-005	0.00000E+000	-6.60017E-001	-6.59978E-001	7	...........
	69	14	-6.89822E-001	-2.68849E-005	0.00000E+000	-6.90013E-001	-6.89989E-001	7	...........
	72	14.6	-7.20023E-001	-2.97660E-005	0.00000E+000	-7.20009E-001	-7.20000E-001	7	...........
	75	15.2	-7.50024E-001	-3.31248E-005	0.00000E+000	-7.50005E-001	-7.49811E-001	7	...........
	78	15.8	-7.79824E-001	-3.71250E-005	0.00000E+000	-7.80001E-001	-7.79622E-001	7	...........
	81	16.4	-7.89824E-001	-3.16500E-005	0.00000E+000	-7.90000E-001	-7.89825E-001	7	...........
	84	17	-7.59624E-001	-1.97397E-005	0.00000E+000	-7.60004E-001	-7.59814E-001	7	...........
	87	17.6	-7.29623E-001	-1.33211E-005	0.00000E+000	-7.30008E-001	-7.29803E-001	7	...........
	90	18.2	-6.99822E-001	-9.13554E-006	0.00000E+000	-7.00012E-001	-6.99792E-001	7	...........
	93	18.8	-6.69622E-001	-6.18594E-006	0.00000E+000	-6.70015E-001	-6.69981E-001	7	...........
	96	19.4	-6.39821E-001	-4.01132E-006	0.00000E+000	-6.40019E-001	-6.40170E-001	7	...........
	99	20	-6.09820E-001	-2.35614E-006	0.00000E+000	-6.10023E-001	-6.09959E-001	7	...........
	102	20.6	-5.79820E-001	-1.05171E-006	0.00000E+000	-5.79977E-001	-5.80148E-001	7	...........
	105	21.2	-5.49819E-001	-1.95139E-008	0.00000E+000	-5.49981E-001	-5.49937E-001	7	...........
	108	21.8	-5.19818E-001	8.15593E-007	0.00000E+000	-5.19984E-001	-5.20126E-001	7	...........
	111	22.4	-4.89818E-001	1.50873E-006	0.00000E+000	-4.89988E-001	-4.90115E-001	7	...........
	114	23	-4.59817E-001	2.07827E-006	0.00000E+000	-4.59992E-001	-4.60104E-001	7	...........
	117	23.6	-4.30016E-001	2.55262E-006	0.00000E+000	-4.29996E-001	-4.30093E-001	7	...........
	120	24.2	-4.00216E-001	2.94010E-006	0.00000E+000	-3.99999E-001	-4.00282E-001	7	...........
	123	24.8	-3.70015E-001	3.26079E-006	0.00000E+000	-3.70003E-001	-3.70270E-001	7	...........
	126	25.4	-3.40014E-001	3.51633E-006	0.00000E+000	-3.40007E-001	-3.40259E-001	7	...........
	129	26	-3.10014E-001	3.72009E-006	0.00000E+000	-3.10011E-001	-3.10248E-001	7	...........
	132	26.6	-2.80013E-001	3.88545E-006	0.00000E+000	-2.80015E-001	-2.80037E-001	7	...........
	135	27.2	-2.50012E-001	4.02240E-006	0.00000E+000	-2.50018E-001	-2.50026E-001	7	...........
	138	27.8	-2.20011E-001	4.14266E-006	0.00000E+000	-2.20022E-001	-2.20215E-001	7	...........
	141	28.4	-1.90011E-001	4.25456E-006	0.00000E+000	-1.89976E-001	-1.90204E-001	7	...........
	144	29	-1.60010E-001	4.35979E-006	0.00000E+000	-1.59980E-001	-1.60193E-001	7	...........
	147	29.6	-1.30009E-001	4.47336E-006	0.00000E+000	-1.29984E-001	-1.30382E-001	7	...........
	150	30.2	-1.00009E-001	4.59529E-006	0.00000E+000	-9.99874E-002	-1.00371E-001	7	...........
	153	30.8	-7.00081E-002	4.73057E-006	0.00000E+000	-6.99912E-002	-7.03596E-002	7	...........
	156	31.4	-4.00074E-002	4.87755E-006	0.00000E+000	-3.99949E-002	-4.05486E-002	7	...........
	159	32	-1.02067E-002	5.04123E-006	0.00000E+000	-9.99874E-003	-1.03374E-002	7	...........
	162	32.6	1.99940E-002	5.22162E-006	0.00000E+000	1.99975E-002	1.96737E-002	7	...........
	165	33.2	4.97947E-002	5.41870E-006	0.00000E+000	4.99937E-002	4.92846E-002	7	...........
	168	33.8	7.97953E-002	5.62915E-006	0.00000E+000	7.99899E-002	7.94958E-002	7	...........
	171	34.4	1.09796E-001	5.85797E-006	0.00000E+000	1.09986E-001	1.09507E-001	7	...........
[...]
	921	184.4	3.89402E-001	-2.10060E-006	0.00000E+000	3.90001E-001	3.89410E-001	7	...........
	922	184.6	3.79202E-001	-2.19413E-006	0.00000E+000	3.80002E-001	3.79407E-001	7	...........
	923	184.8	3.69402E-001	-2.28599E-006	0.00000E+000	3.70003E-001	3.69203E-001	7	...........
	924	185	3.59402E-001	-2.37284E-006	0.00000E+000	3.60005E-001	3.59199E-001	7	...........
	925	185.2	3.49201E-001	-2.45970E-006	0.00000E+000	3.50006E-001	3.49396E-001	7	...........
	926	185.4	3.39401E-001	-2.54321E-006	0.00000E+000	3.40007E-001	3.39192E-001	7	...........
	927	185.6	3.29201E-001	-2.62338E-006	0.00000E+000	3.30008E-001	3.29388E-001	7	...........
	928	185.8	3.19401E-001	-2.70021E-006	0.00000E+000	3.20010E-001	3.19384E-001	7	...........
	929	186	3.09401E-001	-2.77871E-006	0.00000E+000	3.10011E-001	3.09181E-001	7	...........
	930	186.2	2.99200E-001	-2.85387E-006	0.00000E+000	3.00012E-001	2.99177E-001	7	...........
	931	186.4	2.89400E-001	-2.92736E-006	0.00000E+000	2.90013E-001	2.89173E-001	7	...........
	932	186.6	2.79400E-001	-3.00252E-006	0.00000E+000	2.80015E-001	2.79370E-001	7	...........
	933	186.8	2.69400E-001	-3.07433E-006	0.00000E+000	2.70016E-001	2.69366E-001	7	...........
	934	187	2.59199E-001	-3.14782E-006	0.00000E+000	2.60017E-001	2.59362E-001	7	...........
	935	187.2	2.49399E-001	-3.21797E-006	0.00000E+000	2.50018E-001	2.49359E-001	7	...........
	936	187.4	2.39399E-001	-3.28979E-006	0.00000E+000	2.40020E-001	2.39355E-001	7	...........
	937	187.6	2.29399E-001	-3.35994E-006	0.00000E+000	2.30021E-001	2.29351E-001	7	...........
	938	187.8	2.19399E-001	-3.43009E-006	0.00000E+000	2.20022E-001	2.19347E-001	7	...........
	939	188	2.09398E-001	-3.50191E-006	0.00000E+000	2.10023E-001	2.09344E-001	7	...........
	940	188.2	1.99398E-001	-3.57039E-006	0.00000E+000	2.00025E-001	1.99340E-001	7	...........
	941	188.4	1.89398E-001	-3.64054E-006	0.00000E+000	1.90026E-001	1.89336E-001	7	...........
	942	188.6	1.79398E-001	-3.71904E-006	0.00000E+000	1.79977E-001	1.79533E-001	7	...........
	943	188.8	1.69397E-001	-3.78752E-006	0.00000E+000	1.69979E-001	1.69129E-001	7	...........
	944	189	1.59597E-001	-3.85934E-006	0.00000E+000	1.59980E-001	1.59325E-001	7	...........
	945	189.2	1.49397E-001	-3.93115E-006	0.00000E+000	1.49981E-001	1.49322E-001	7	...........
	946	189.4	1.39597E-001	-4.00297E-006	0.00000E+000	1.39982E-001	1.39518E-001	7	...........
	947	189.6	1.29596E-001	-4.07479E-006	0.00000E+000	1.29984E-001	1.29514E-001	7	...........
	948	189.8	1.19396E-001	-4.14828E-006	0.00000E+000	1.19985E-001	1.19511E-001	7	...........
	949	190	1.09396E-001	-4.22344E-006	0.00000E+000	1.09986E-001	1.09307E-001	7	...........
	950	190.2	9.93958E-002	-4.29860E-006	0.00000E+000	9.99874E-002	9.95032E-002	7	...........
	951	190.4	8.91955E-002	-4.37376E-006	0.00000E+000	8.99886E-002	8.92994E-002	7	...........
	952	190.6	7.93953E-002	-4.44892E-006	0.00000E+000	7.99899E-002	7.94958E-002	7	...........
	953	190.8	6.93951E-002	-4.52742E-006	0.00000E+000	6.99912E-002	6.94921E-002	7	...........
	954	191	5.93949E-002	-4.60592E-006	0.00000E+000	5.99924E-002	5.94884E-002	7	...........
	955	191.2	4.93946E-002	-4.68442E-006	0.00000E+000	4.99937E-002	4.94847E-002	7	...........
	956	191.4	3.95944E-002	-4.76292E-006	0.00000E+000	3.99949E-002	3.94810E-002	7	...........
	957	191.6	2.95942E-002	-4.84142E-006	0.00000E+000	2.99962E-002	2.96774E-002	7	...........
	958	191.8	1.95940E-002	-4.92326E-006	0.00000E+000	1.99975E-002	1.96737E-002	7	...........
	959	192	9.59374E-003	-5.00176E-006	0.00000E+000	9.99874E-003	9.46990E-003	7	...........
	960	192.2	-4.06489E-004	-5.08193E-006	0.00000E+000	0.00000E+000	-3.33723E-004	7	...........