Folder: Tesis/Data/CV_CRGO300517_5/PWRCCD_CRGO300517_5

File: PWRCCD_CRGO300517_5.DTA
EXPLAIN
TAG	PWR800_CYCLICCHARGEDISCHARGE
TITLE	LABEL	PWR Cyclic Charge Discharge (Cell)	Test &Identifier
DATE	LABEL	10-7-2017	Date
TIME	LABEL	14:59:25	Time
NOTES	NOTES	3	&Notes...
	supercap test cell
	0.9mg
	6M KOH
PSTAT	PSTAT	IFC5000-01520	Potentiostat
CAPACITY	QUANT	1.00000E-003	Capacity (A-hr)
CYCLES	IQUANT	1000	Number of Cycles
FIRSTSTEP	SELECTOR	0	First Step
CELLTYPE	SELECTOR	1	&Cell Type
WORKINGCONNECTION	SELECTOR	0	&Working Lead
MAXCHARGETIME	VARIABLEANDUNITS	1.00000E+002	s	1.00000E+002	second(s)	Max &Charge Time
CHARGECURRENT	QUANT	9.00000E-005	&Charge Current (A)
VOLTAGEFINISH	TWOPARAM	F	1.00000E-003	3.60000E+003	&Voltage Finish	 I (A) < 	Max Time(s)
SAMPLETIME	QUANT	1.00000E-002	Sa&mple Period (s)
CHARGESTOPAT1	MULTIPARAM	4	1.00000E+000	Charge Stop At &1	Voltage > Limit	V
CHARGESTOPAT2	MULTIPARAM	0	0.00000E+000	Charge Stop At &2	None	N/A
IRCOMP	TOGGLE	F	IR &Measure
EOC	QUANT	0	Open Circuit (V)
CHARGERESTTIME	VARIABLEANDUNITS	1.00000E-001	s	1.00000E-001	second(s)	&Charge Rest Time
MAXDISCHARGETIME	VARIABLEANDUNITS	1.00000E+002	s	1.00000E+002	second(s)	Max &Discharge Time
DISCHARGEMODE	MULTIPARAM	0	9.00000E-005	&Discharge Mode	Constant Current	Amp(s)
DISCHARGESTOPAT1	MULTIPARAM	3	0.00000E+000	Discharge Stop At &1	Voltage < Limit	V
DISCHARGESTOPAT2	MULTIPARAM	0	0.00000E+000	Discharge Stop At &2	None	N/A
DISCHARGERESTTIME	VARIABLEANDUNITS	1.00000E-001	s	1.00000E-001	second(s)	&Discharge Rest Time
LOOPEND1	MULTIPARAM	0	3.60000E+003	Loop End &1	None	N/A
LOOPEND2	MULTIPARAM	0	0.00000E+000	Loop End &2	None	N/A
PSTATMODEL	IQUANT	53	Pstat Model
PSTATSECTION	LABEL	IFC5000-01520	Pstat Section
PSTATSERIALNO	LABEL	01520	Pstat Serial Number
CTRLMODE	IQUANT	0	Control Mode
ELECTROMETER	IQUANT	1	RE=0 or CS=1
IESTAB	IQUANT	0	I/E Stability
CASPEED	IQUANT	4	Control Amp Speed
CONVENTION	IQUANT	1	Current Convention
ICHRANGE	IQUANT	2	Ich Range
ICHRANGEMODE	TOGGLE	T	Ich Auto Range
ICHOFFSETENABLE	TOGGLE	F	Ich Offset Enable
ICHOFFSET	QUANT	0	Ich Offset (V)
ICHFILTER	IQUANT	1	Ich Filter
VCHRANGE	IQUANT	0	Vch Range
VCHRANGEMODE	TOGGLE	T	Vch Auto Range
VCHOFFSETENABLE	TOGGLE	F	Vch Offset Enable
VCHOFFSET	QUANT	0	Vch Offset (V)
VCHFILTER	IQUANT	1	Vch Filter
IERANGELOWERLIMIT	IQUANT	9	I/E Range Lower Limit
IERANGEMODE	TOGGLE	F	I/E AutoRange
IERANGE	IQUANT	9	I/E Range
ACHSELECT	IQUANT	1	Ach Select
ACHRANGE	IQUANT	0	Ach Range
ACHOFFSETENABLE	TOGGLE	F	Ach Offset Enable
ACHOFFSET	QUANT	0	Ach Offset (V)
ACHFILTER	IQUANT	1	Ach Filter
CABLEID	IQUANT	14	Cable ID
DCCALDATE	LABEL	5-7-2017	DC Calibration Date
ACCALDATE	LABEL	12/3/2015	AC Calibration Date
FRAMEWORKVERSION	QUANT	7.01	Framework Version
INSTRUMENTVERSION	LABEL	4.00	Instrument Version
CAPACITYCURVE	TABLE
	Pt	Time	Type	Cycle	Charge	Duration	Vstart	Vend	Energy	Tstart	Tend	Over
	#	s	#	#	C	s	V	V	J	deg C	deg C	bits
	1	4	0	1	0.0002719	2.978333	0.5322006	0.999976	0.0002371	3.574	3.5706	...........
	20	64	1	10	0.0002139	2.415	0.8595391	-0.0001195	-7.751257E-005	3.5706	3.5714	...........
	39	122	0	20	0.0002559	2.805	0.2991329	0.999916	0.0002056	3.5719	3.5711	...........
	58	179	1	29	0.000203	2.291667	0.850552	0.0009865	-7.286071E-005	3.5709	3.5709	...........
	77	235	0	39	0.0002427	2.661667	0.2984149	0.999802	0.0001942	3.5713	3.571	...........
	96	289	1	48	0.0002002	2.26	0.8454039	0.000333	-7.114536E-005	3.5716	3.5711	...........
	115	343	0	58	0.000235	2.576667	0.3031841	1.000001	0.0001877	3.5716	3.5718	...........
	134	397	1	67	0.0001975	2.228333	0.8401657	-0.0002209	-6.970743E-005	3.5713	3.5713	...........
	153	451	0	77	0.0002269	2.488333	0.3701498	0.999762	0.0001842	3.5721	3.5714	...........
	172	503	1	86	0.000195	2.2	0.8387589	0.0011878	-6.863446E-005	3.5718	3.5722	...........
	191	556	0	96	0.000227	2.49	0.3073297	0.999834	0.000181	3.5727	3.5715	...........
	210	608	1	105	0.0001942	2.19	0.8385977	8.480909E-005	-6.820085E-005	3.572	3.5719	...........
	229	661	0	115	0.000225	2.468333	0.2899957	1.000076	0.0001784	3.572	3.5724	...........
	248	712	1	124	0.0001915	2.16	0.8218251	0.0013525	-6.604602E-005	3.5716	3.5724	...........
	267	764	0	134	0.0002219	2.435	0.291036	0.999784	0.0001758	3.5726	3.5725	...........
	286	815	1	143	0.0001908	2.151667	0.8330693	0.0002882	-6.653112E-005	3.5723	3.5721	...........
	305	867	0	153	0.0002216	2.431667	0.2899335	0.999973	0.0001754	3.5723	3.5719	...........
	324	918	1	162	0.0001918	2.161667	0.8306497	-0.0002724	-6.659603E-005	3.5724	3.572	...........
	343	970	0	172	0.0002206	2.421667	0.2875752	0.999868	0.0001745	3.5725	3.5718	...........
	362	1021	1	181	0.0001901	2.143333	0.826822	0.0010311	-6.572844E-005	3.5718	3.5723	...........
	381	1073	0	191	0.0002185	2.398333	0.2889484	0.999644	0.0001727	3.5725	3.5719	...........
	400	1123	1	200	0.0001894	2.135	0.827366	-1.755371E-005	-6.540543E-005	3.5725	3.5723	...........
	419	1174	0	210	0.0002167	2.378333	0.2874566	0.999913	0.000171	3.5724	3.572	...........
	438	1225	1	219	0.0001874	2.111667	0.8248863	0.000245	-6.451792E-005	3.572	3.5725	...........
	457	1275	0	229	0.0002148	2.358333	0.2864934	0.99972	0.0001693	3.5724	3.572	...........
	476	1326	1	238	0.000186	2.096667	0.822743	7.980356E-005	-6.393188E-005	3.5721	3.5721	...........
	495	1376	0	248	0.0002135	2.345	0.2838863	0.999632	0.0001681	3.5721	3.5723	...........
	514	1426	1	257	0.0001861	2.096667	0.8227893	6.048227E-005	-6.391061E-005	3.5721	3.5727	...........
	533	1476	0	267	0.0002124	2.331667	0.2810384	0.999642	0.0001669	3.5722	3.5721	...........
	552	1526	1	276	0.0001853	2.088333	0.8224279	0.0005779	-6.353783E-005	3.5722	3.5722	...........
	571	1576	0	286	0.0002119	2.326667	0.2820787	0.999911	0.0001666	3.5726	3.5722	...........
	590	1626	1	295	0.0001848	2.083333	0.8210298	-0.0002015	-6.330335E-005	3.5724	3.5728	...........
	609	1676	0	305	0.0002114	2.321667	0.2840068	1.000076	0.0001663	3.572463	3.5723	...........
	628	1725	1	314	0.0001858	2.093333	0.8183464	0.0011207	-6.333932E-005	3.5726	3.5722	...........
	647	1775	0	324	0.0002125	2.333333	0.2789716	0.99954	0.000167	3.5733	3.5726	...........
	666	1825	1	333	0.0001851	2.085	0.816582	0.0003858	-6.309136E-005	3.5722	3.5729	...........
	685	1874	0	343	0.0002099	2.305	0.2803177	0.999666	0.0001647	3.5734	3.5723	...........
	704	1924	1	352	0.0001831	2.063333	0.8168546	0.0009967	-6.240232E-005	3.5725	3.5736	...........
	723	1973	0	362	0.0002094	2.3	0.2793663	0.999826	0.0001642	3.5733	3.5725	...........
	742	2022	1	371	0.000183	2.061667	0.8171585	0.0004412	-6.227172E-005	3.5724	3.5724	...........
	761	2071	0	381	0.0002078	2.283333	0.2779813	0.999966	0.0001628	3.573	3.5724	...........
	780	2120	1	390	0.0001817	2.046667	0.8163832	0.0004459	-6.181562E-005	3.5724	3.5724	...........
	799	2169	0	400	0.0002075	2.278333	0.2759373	0.999603	0.0001624	3.5728	3.5724	...........
	818	2218	1	409	0.0001814	2.043333	0.813961	0.0002146	-6.158018E-005	3.5724	3.5724	...........
	837	2267	0	419	0.0002066	2.27	0.2784919	1.000056	0.0001617	3.5727	3.5728	...........
	856	2316	1	428	0.0001812	2.041667	0.8134845	-0.0003446	-6.140703E-005	3.5728	3.573	...........
	875	2365	0	438	0.0002066	2.27	0.2758381	1.000041	0.0001617	3.572899	3.5725	...........
	894	2413	1	447	0.0001812	2.04	0.8140285	0.0015043	-6.138608E-005	3.5725	3.572899	...........
	913	2462	0	457	0.0002052	2.255	0.2769394	1.000016	0.0001605	3.5728	3.5725	...........
	932	2511	1	466	0.0001804	2.031667	0.8128093	0.0003523	-6.108089E-005	3.5725	3.5725	...........
	951	2559	0	476	0.0002046	2.248333	0.2796218	0.999788	0.0001601	3.5732	3.5725	...........
	970	2608	1	485	0.0001799	2.025	0.812478	0.0012844	-6.086215E-005	3.5725	3.5725	...........
	989	2656	0	495	0.0002047	2.248333	0.2723918	0.999792	0.0001598	3.573	3.5729	...........
	1008	2704	1	504	0.0001792	2.018333	0.8116839	0.0003939	-6.057317E-005	3.5727	3.5729	...........
	1027	2753	0	514	0.0002035	2.236667	0.2747206	0.999744	0.0001589	3.572899	3.5726	...........
	1046	2801	1	523	0.0001789	2.015	0.8105522	-0.0002635	-6.029694E-005	3.5726	3.5728	...........
	1065	2850	0	533	0.0002033	2.233333	0.2722596	0.999858	0.0001585	3.5731	3.5726	...........
	1084	2898	1	542	0.0001785	2.01	0.8084065	0.0009734	-6.01177E-005	3.572899	3.5726	...........
	1103	2946	0	552	0.0002032	2.231667	0.2716115	0.999926	0.0001584	3.573	3.5726	...........
	1122	2994	1	561	0.0001783	2.008333	0.8112338	0.0005649	-6.012644E-005	3.5726	3.5726	...........
	1141	3042	0	571	0.0002024	2.223333	0.2697977	0.999633	0.0001577	3.5734	3.5728	...........
	1160	3090	1	580	0.0001777	2.001667	0.8090154	-0.0001851	-5.979248E-005	3.573	3.5727	...........
	1179	3138	0	590	0.0002017	2.216667	0.2688433	1.000061	0.0001571	3.573	3.5726	...........
	1198	3186	1	599	0.0001776	2	0.808504	0.0011119	-5.966308E-005	3.5726	3.573	...........
	1217	3234	0	609	0.0002022	2.221667	0.2721432	0.999722	0.0001576	3.5739	3.5729	...........
	1236	3281	1	618	0.0001769	1.991667	0.8079951	0.0003275	-5.951184E-005	3.5726	3.573	...........
	1255	3329	0	628	0.0002012	2.21	0.2629135	0.999714	0.0001563	3.5732	3.5737	...........
	1274	3376	1	637	0.0001764	1.986667	0.8065383	0.0015597	-5.926178E-005	3.5726	3.573	...........
	1293	3424	0	647	0.0002003	2.2	0.2656789	0.999566	0.0001556	3.572899	3.5726	...........
	1312	3471	1	656	0.0001761	1.983333	0.8087228	0.0009911	-5.924176E-005	3.5726	3.5727	...........
	1331	3519	0	666	0.0001998	2.195	0.265631	0.999768	0.0001552	3.572899	3.5736	...........
	1350	3566	1	675	0.0001754	1.975	0.8004636	-0.000419	-5.844287E-005	3.5731	3.5731	...........
	1369	3614	0	685	0.0001991	2.188333	0.2621514	1.000036	0.0001545	3.573	3.5726	...........
	1388	3661	1	694	0.000176	1.981667	0.8044338	0.0006257	-5.885554E-005	3.5727	3.5726	...........
	1407	3708	0	704	0.000199	2.186667	0.2712744	0.999406	0.0001548	3.5731	3.5727	...........
	1426	3756	1	713	0.0001757	1.978333	0.8001609	0.0002793	-5.852369E-005	3.5731	3.5727	...........
	1445	3804	0	723	0.0001984	2.18	0.2792626	0.999758	0.0001546	3.573	3.5727	...........
	1464	3851	1	732	0.0001747	1.968333	0.8028082	0.000665	-5.837149E-005	3.5727	3.573	...........
	1483	3899	0	742	0.0001981	2.176667	0.2782599	0.999966	0.0001543	3.5731	3.5736	...........
	1502	3946	1	751	0.0001736	1.955	0.7898221	0.0008131	-5.727739E-005	3.5727	3.5731	...........
	1521	3995	0	761	0.0001977	2.171667	0.2666685	0.999543	0.0001534	3.5731	3.5727	...........
	1540	4042	1	770	0.0001745	1.965	0.801644	0.0003456	-5.823006E-005	3.5728	3.5737	...........
	1559	4090	0	780	0.0001976	2.171667	0.2668524	0.999569	0.0001534	3.573	3.5727	...........
	1578	4137	1	789	0.000174	1.96	0.800471	0.0013567	-5.796054E-005	3.5727	3.5727	...........
	1597	4184	0	799	0.0001971	2.165	0.2657518	1.000006	0.0001529	3.5732	3.5731	...........
	1616	4231	1	808	0.0001738	1.956667	0.7982814	0.0007097	-5.774953E-005	3.5727	3.5728	...........
	1635	4278	0	818	0.0001975	2.17	0.2696536	0.999721	0.0001534	3.573	3.5728	...........
	1654	4326	1	827	0.0001736	1.955	0.8026581	0.0008735	-5.79269E-005	3.5735	3.5736	...........
	1673	4373	0	837	0.0001969	2.163333	0.2634098	1.000076	0.0001526	3.5731	3.5728	...........
	1692	4420	1	846	0.0001738	1.956667	0.800326	0.0009218	-5.786697E-005	3.5728	3.5728	...........
	1711	4468	0	856	0.0001969	2.163333	0.265956	1.000031	0.0001527	3.5732	3.5728	...........
	1730	4515	1	865	0.0001733	1.951667	0.8005186	2.546033E-005	-5.762345E-005	3.5732	3.5733	...........
	1749	4562	0	875	0.0001963	2.156667	0.2652863	0.999599	0.0001521	3.5732	3.5728	...........
	1768	4608	1	884	0.000173	1.948333	0.799877	-8.652973E-005	-5.757884E-005	3.5728	3.5732	...........
	1787	4655	0	894	0.0001966	2.16	0.2577382	0.999468	0.000152	3.5731	3.5728	...........
	1806	4702	1	903	0.0001735	1.953333	0.8041736	0.0003469	-5.78814E-005	3.5728	3.5728	...........
	1825	4749	0	913	0.0001961	2.155	0.2593865	0.999714	0.0001517	3.5732	3.5728	...........
	1844	4795	1	922	0.0001732	1.95	0.8030432	0.0001061	-5.772897E-005	3.572899	3.5729	...........
	1863	4842	0	932	0.0001954	2.148333	0.2557463	1.000066	0.000151	3.5735	3.5733	...........
	1882	4888	1	941	0.0001728	1.945	0.8026981	0.0009324	-5.751241E-005	3.5731	3.5733	...........
	1901	4935	0	951	0.0001944	2.136667	0.2603692	1.000001	0.0001503	3.5736	3.5743	...........
	1920	4982	1	960	0.000172	1.936667	0.7977763	-0.0001085	-5.6988E-005	3.573	3.5735	...........
	1939	5029	0	970	0.0001947	2.14	0.2635436	0.999773	0.0001507	3.5733	3.5734	...........
	1958	5076	1	979	0.000172	1.936667	0.7983177	-0.0001437	-5.701834E-005	3.5731	3.5733	...........
	1977	5122	0	989	0.0001945	2.138333	0.2607081	0.999969	0.0001504	3.5735	3.573	...........
	1996	5169	1	998	0.0001716	1.931667	0.7926757	0.0012589	-5.663178E-005	3.5734	3.572899	...........
	2000	5179	1	1000	0.0001724	1.94	0.7987766	0.0005202	-5.717423E-005	3.572899	3.5729	...........
STOPREASON	LABEL	Cycle Limit	Stop Reason